"Time (s)","Linear Acceleration x (m/s^2)","Linear Acceleration y (m/s^2)","Linear Acceleration z (m/s^2)","Absolute acceleration (m/s^2)"
1.301341667E-2,5.114715944E-1,-9.363564500E-1,9.357761139E-1,1.419170014E0
2.297241669E-2,7.055960843E-1,-1.065083780E0,3.939152241E-1,1.336951194E0
3.293041667E-2,7.331724304E-1,-1.109852986E0,-1.239703274E-1,1.335920696E0
4.288941668E-2,7.447135185E-1,-8.960473533E-1,-7.664044958E-1,1.394587729E0
5.284741669E-2,3.677679375E-1,-5.958403382E-1,-8.325593090E-1,1.087857512E0
6.280641668E-2,-1.798023199E-1,-3.031946500E-1,-9.612974560E-1,1.023888992E0
7.276441669E-2,-4.648437041E-1,-5.593826562E-2,-8.636138713E-1,9.823633124E-1
8.272341668E-2,-4.850627911E-1,4.855966419E-3,-6.438287294E-1,8.061171903E-1
9.268141669E-2,-3.673061536E-1,-1.288814038E-1,-4.670270544E-1,6.079790262E-1
1.026404167E-1,-1.836743461E-1,-2.605032514E-1,-5.314750654E-1,6.197289363E-1
1.125984167E-1,-1.138895083E-1,-5.084180322E-1,-5.594627631E-1,7.644987239E-1
1.225574167E-1,-6.367325485E-3,-7.456031723E-1,-4.472769141E-1,8.694948369E-1
1.325154167E-1,4.709984833E-1,-8.491705178E-1,-5.613069749E-1,1.121604057E0
1.424744167E-1,1.180778835E0,-8.060011093E-1,-7.750946277E-1,1.626237414E0
1.524324167E-1,1.841602497E0,-5.871005049E-1,-8.382094735E-1,2.106841684E0
1.623914167E-1,2.119566704E0,-4.069153386E-1,-1.222989008E0,2.480694503E0
1.723504167E-1,2.067384251E0,-3.946850100E-1,-1.916076436E0,2.846261198E0
1.823084167E-1,1.823011859E0,-2.447195698E-1,-2.122672014E0,2.808735727E0
1.922674167E-1,1.024690483E0,-8.065970868E-2,-1.878082398E0,2.140955410E0
2.022254167E-1,4.856422502E-1,7.156991959E-2,-1.728090792E0,1.796459973E0
2.121844167E-1,2.276137597E-1,1.231873852E-1,-1.641502883E0,1.661780633E0
2.221424167E-1,1.166382844E-1,8.413938671E-2,-1.561058060E0,1.567669031E0
2.321014167E-1,-3.264370398E-1,-5.127212906E-1,-1.278061593E0,1.415233443E0
2.420594167E-1,-9.194066875E-2,-9.281061749E-1,-1.014028232E0,1.377710932E0
2.520184167E-1,7.413725656E-1,-6.052091856E-1,-1.263490332E0,1.585029734E0
2.619764167E-1,9.217724709E-1,-2.562176809E-1,-1.648938788E0,1.906386926E0
2.719354167E-1,9.434318733E-1,8.634320229E-2,-1.988489524E0,2.202636928E0
2.818934167E-1,7.712500834E-1,2.447407660E-1,-2.130161712E0,2.278664884E0
2.918527084E-1,7.298975511E-1,2.332768612E-1,-1.926238312E0,2.073056334E0
3.018107083E-1,9.371010198E-1,2.196715598E-1,-1.717919560E0,1.969177882E0
3.117697084E-1,1.225964656E0,2.058402635E-1,-1.719250386E0,2.121598794E0
3.217277083E-1,1.449348028E0,1.275390293E-1,-1.576232169E0,2.145083626E0
3.316867083E-1,1.699915252E0,1.226323383E-1,-1.319450524E0,2.155388652E0
3.416447084E-1,1.893970745E0,2.666570073E-1,-1.299124433E0,2.312132227E0
3.516037083E-1,2.107491765E0,4.844276373E-1,-1.519542244E0,2.642952952E0
3.615617084E-1,2.414432872E0,7.110929056E-1,-1.116653883E0,2.753553179E0
3.715207083E-1,2.703303159E0,9.057734656E-1,-3.942356515E-1,2.878140943E0
3.814787084E-1,2.721452624E0,7.593509996E-1,6.952333564E-1,2.909685163E0
3.914377083E-1,2.645988459E0,3.355975802E-1,9.222333777E-1,2.822125983E0
4.013967084E-1,2.235161041E0,-7.301564366E-3,3.212928057E-1,2.258146864E0
4.113547083E-1,1.233301157E0,-1.974978948E-1,7.298377633E-2,1.251144994E0
4.213137084E-1,7.858345011E-1,1.981549756E-1,-1.861121964E-1,8.315281157E-1
4.312717083E-1,5.890613687E-1,6.876827006E-1,-3.357892227E-1,9.657407493E-1
4.412307084E-1,4.468924597E-1,9.213906477E-1,-4.304527205E-1,1.110838936E0
4.511887083E-1,9.469498506E-1,8.024915374E-1,-6.877611995E-2,1.243156001E0
4.611477084E-1,1.791290422E0,6.045651879E-1,8.329247600E-1,2.065909993E0
4.711057083E-1,2.593472861E0,8.290453517E-1,1.623462469E0,3.170023354E0
4.810647084E-1,2.523116823E0,9.661265253E-1,1.350982220E0,3.020707190E0
4.910227083E-1,1.603838629E0,7.022314502E-1,2.078095765E0,2.717334975E0
5.009817083E-1,3.638307148E-1,-1.573119367E-2,2.292869259E0,2.321609290E0
5.109397084E-1,-4.319747508E-2,-4.327585700E-1,1.157256948E0,1.236280569E0
5.208987083E-1,4.426400721E-1,-2.099966106E-1,7.961451888E-1,9.348133351E-1
5.308567084E-1,1.204415912E0,-2.411833931E-1,1.260245712E0,1.759831348E0
5.408157083E-1,3.499608269E0,-1.102623197E0,1.432783597E0,3.939023329E0
5.507737084E-1,2.539038207E0,-2.217921402E0,-6.353481032E0,7.192538605E0
5.607327083E-1,1.668369670E0,-1.675495379E0,-3.273281263E0,4.037958933E0
5.706907084E-1,5.554090639E0,-7.573541754E-1,2.154184413E-1,5.609626839E0
5.806497083E-1,5.437087269E0,-2.025360604E0,2.919649261E-1,5.809410217E0
5.906077083E-1,3.722193058E0,-4.436932434E0,-1.122670668E0,5.899277923E0
6.005667083E-1,2.034733983E0,-4.388893756E0,-8.992362785E-1,4.920483378E0
6.105247083E-1,7.271299177E-1,-3.098377009E0,-5.046883857E-1,3.222323443E0
6.204837083E-1,4.125035226E-2,-2.549208854E0,-5.288490808E-1,2.603814264E0
6.304417083E-1,-5.016384780E-2,-2.110843096E0,-1.300648218E0,2.479891283E0
6.404007083E-1,1.534408790E-1,-2.667805005E0,-1.562461392E0,3.095482717E0
6.503587083E-1,3.848812759E-2,-3.178532395E0,-1.498212771E0,3.514141578E0
6.603177084E-1,-5.257810467E-1,-3.429505124E0,-1.615980957E0,3.827446349E0
6.702767083E-1,-7.434588522E-1,-4.235664254E0,-1.439120809E0,4.534826506E0
6.802347084E-1,-5.027605587E-1,-4.972202634E0,-1.377452565E0,5.183911919E0
6.901937083E-1,-5.257097107E-1,-5.077318615E0,-1.194401971E0,5.242340230E0
7.001517084E-1,-5.281579399E-1,-4.439408437E0,-1.515840957E0,4.720706715E0
7.101107083E-1,-2.848523730E-1,-4.207678603E0,-2.107062287E0,4.714383478E0
7.200687084E-1,-4.665575230E-1,-4.134803000E0,-2.051175184E0,4.639136925E0
7.300277083E-1,-1.549246100E0,-4.214786478E0,-1.677888937E0,4.793735477E0
7.399857084E-1,-2.981223950E0,-4.593163311E0,-1.072895660E0,5.579959726E0
7.499447083E-1,-3.886993908E0,-4.792308952E0,-6.357279968E-1,6.203152167E0
7.599027083E-1,-4.849787666E0,-4.714729849E0,-2.059757727E-1,6.766944951E0
7.698617083E-1,-6.044025915E0,-4.426567951E0,2.573295289E-1,7.496063739E0
7.798197083E-1,-7.010850159E0,-4.202414939E0,5.858904237E-1,8.194850753E0
7.897787083E-1,-7.818088101E0,-3.839556032E0,1.031429838E0,8.770891607E0
7.997367083E-1,-8.473852751E0,-2.786988802E0,1.933083647E0,9.127447585E0
8.096957083E-1,-8.721104604E0,-1.448600900E0,2.731688468E0,9.253012048E0
8.196537083E-1,-8.647922022E0,3.378860343E-1,2.464470420E0,8.998574150E0
8.296127084E-1,-8.727422521E0,1.420924274E0,2.679469616E0,9.239398631E0
8.395707083E-1,-8.971987578E0,2.047027169E0,3.541453868E0,9.860465345E0
8.495297084E-1,-9.127902998E0,3.008029926E0,2.998698939E0,1.006772330E1
8.594877083E-1,-8.924641503E0,3.499353331E0,5.654967973E0,1.112984108E1
8.694467084E-1,-8.647465940E0,3.162389402E0,5.440904331E0,1.069499013E1
8.794047083E-1,-7.817170088E0,3.626989278E0,4.439210216E0,9.693801460E0
8.893637084E-1,-7.195975345E0,3.833663793E0,5.116189150E0,9.625717151E0
8.993227083E-1,-6.122228916E0,3.752672839E0,5.212775213E0,8.873402152E0
9.092807084E-1,-4.529880651E0,4.257260068E0,5.178036320E0,8.090497026E0
9.192397083E-1,-3.090170442E0,4.557140955E0,5.358128808E0,7.682853074E0
9.291977083E-1,-1.694156476E0,4.896556036E0,5.020724584E0,7.214852911E0
9.391567083E-1,-7.648257476E-1,5.201475468E0,4.259659181E0,6.766461543E0
9.491147083E-1,-2.523564720E-1,5.036379919E0,3.509178407E0,6.143544545E0
9.590737083E-1,-7.321591079E-2,4.846281676E0,3.120780616E0,5.764640345E0
9.690317083E-1,-7.363983393E-3,4.951062026E0,3.328459682E0,5.965879086E0
9.789907083E-1,-2.787648368E-1,5.450520077E0,3.469695668E0,6.467199315E0
9.889487083E-1,-9.237331885E-1,4.198479179E0,2.117196096E0,4.791975556E0
9.989077084E-1,-1.085204633E0,2.330699574E0,1.545778116E0,2.999876595E0
1.008865708E0,-1.040806725E0,1.800254788E0,1.124138904E0,2.363870601E0
1.018824708E0,6.219273984E-2,2.575354094E0,4.521622628E-1,2.615486065E0
1.028782708E0,1.747778367E0,1.844550371E0,5.650503258E-1,2.603147549E0
1.038741708E0,3.341433485E0,9.227303910E-1,7.571267188E-1,3.548217859E0
1.048699708E0,5.014148805E0,1.787066978E-1,7.066038519E-1,5.066844514E0
1.058658708E0,6.738431890E0,-7.805763924E-1,1.744013929E-1,6.785733541E0
1.068616708E0,7.478875333E0,-1.354875880E0,-7.099561337E-1,7.633695213E0
1.078575708E0,7.236711727E0,-1.764756927E0,-1.501601086E0,7.598629446E0
1.088533708E0,6.460274579E0,-1.714898888E0,-1.723089083E0,6.902540244E0
1.098492708E0,5.313616294E0,-1.503894510E0,-1.547710036E0,5.735121897E0
1.108450708E0,3.381118537E0,-1.468645740E0,-4.775150590E-1,3.717109563E0
1.118409708E0,1.090640205E0,-7.371660787E-1,1.229098763E0,1.800997961E0
1.128368708E0,-2.532534349E-1,-8.719484925E-2,1.088728019E0,1.121190860E0
1.138326708E0,-8.493086582E-1,8.402969295E-1,-4.542446025E-1,1.278187109E0
1.148285708E0,-4.369393292E0,2.055831322E0,-3.025101457E0,5.698182078E0
1.158243708E0,-9.656563799E0,-2.207185622E0,-6.606160855E-1,9.927603255E0
1.168202708E0,-8.420755355E0,-3.912035778E-1,8.918319494E-3,8.429842260E0
1.178160708E0,-5.242419426E0,1.078401398E0,-4.999369383E-3,5.352189833E0
1.188119708E0,-3.344240148E0,1.344148579E0,8.143081024E-2,3.605178019E0
1.198077708E0,-2.617541170E0,1.011351961E-1,-2.700711966E-1,2.633379683E0
1.208036708E0,-2.047091489E0,-7.623857045E-1,-6.208731455E-1,2.270968734E0
1.217994708E0,-1.405705141E0,-1.360835070E0,5.576605781E-1,2.034419906E0
1.227953708E0,-1.411889741E0,-1.377875026E0,8.061519675E-1,2.131162412E0
1.237911708E0,-1.104833736E0,-7.972058737E-1,1.667303869E0,2.153159767E0
1.247870708E0,-1.360545341E0,-5.944413918E-1,2.838642520E0,3.203488029E0
1.257828708E0,-8.640114820E-1,-9.710690305E-1,2.498150382E0,2.816069288E0
1.267787708E0,2.847862995E-1,-1.428278902E0,8.045324349E-1,1.663837822E0
1.277745708E0,1.260940361E0,-1.487328764E0,-6.996579444E-1,2.071627062E0
1.287704708E0,2.276015244E0,-1.615025522E0,-1.939441910E0,3.398527291E0
1.297662083E0,2.817281472E0,-1.873656348E0,-2.471180977E0,4.189796943E0
1.307621083E0,2.877782028E0,-1.851041949E0,-2.459065254E0,4.213666767E0
1.317579083E0,3.222143269E0,-1.861722766E0,-2.249526919E0,4.348400885E0
1.327538083E0,3.709908643E0,-1.799543182E0,-1.873566155E0,4.529020638E0
1.337496083E0,3.944271478E0,-1.569055297E0,-1.657777000E0,4.557130303E0
1.347455083E0,3.996014074E0,-1.115991978E0,-1.466101617E0,4.400343228E0
1.357414083E0,3.910877445E0,-8.054881623E-1,-1.191015848E0,4.166808409E0
1.367372083E0,3.942291026E0,-6.860795403E-1,-4.397948170E-1,4.025640713E0
1.377331083E0,3.281056305E0,-8.383302185E-1,1.958538039E-1,3.392121275E0
1.387289083E0,2.779164058E0,-1.353933602E0,1.063064736E-1,3.093249121E0
1.397248083E0,2.357948184E0,-1.646313095E0,-9.264211535E-2,2.877298908E0
1.407206083E0,2.949358379E0,-1.976277907E0,-4.876088150E-1,3.583594783E0
1.417165083E0,3.795711855E0,-1.894183876E0,-1.833875986E0,4.621521629E0
1.427123083E0,3.821389902E0,-1.152768333E0,-2.520759226E0,4.720818011E0
1.437082083E0,2.220746192E0,-6.217987597E-1,-1.533345181E0,2.769385274E0
1.447040083E0,-2.520722973E-1,-8.262791070E-1,-1.876605392E-2,8.640774101E-1
1.456999083E0,-1.118653046E0,-1.995355617E0,6.134167761E-2,2.288359997E0
1.466957083E0,-2.432923522E0,-2.675624194E0,1.230187515E0,3.819874738E0
1.476916083E0,-1.840154434E0,-1.704618899E0,1.143235910E-1,2.510968700E0
1.486874083E0,-3.089434862E-2,-4.354187608E-1,-1.800375826E0,1.852538008E0
1.496833083E0,1.461712697E0,1.200437467E0,-3.191771369E0,3.710129188E0
1.506791083E0,2.022827298E0,2.317532229E0,-3.913864202E0,4.978063771E0
1.516750083E0,8.873553210E-1,1.979376639E0,-4.424950612E0,4.928034016E0
1.526708083E0,-6.053084421E-1,1.507993116E0,-3.564127909E0,3.917071521E0
1.536667083E0,-2.460155175E0,1.261730905E0,-1.912946422E0,3.362096425E0
1.546625083E0,-3.825116333E0,2.715961504E-1,-4.321677089E-1,3.859021684E0
1.556584083E0,-3.559118307E0,-7.414792773E-1,1.579651621E-1,3.638965187E0
1.566543083E0,-2.543518928E0,-2.632429935E0,-2.582890570E-1,3.669589778E0
1.576501083E0,-1.168076636E0,-2.054309877E0,1.363163724E0,2.728150919E0
1.586460083E0,5.507387173E-1,1.262347201E0,4.036239409E-1,1.435181479E0
1.596418083E0,1.678150308E0,8.972552419E-1,-6.721511802E-1,2.018178048E0
1.606377083E0,1.694537714E0,-7.917583153E-1,9.727713011E-1,2.108227525E0
1.616335083E0,2.147636116E0,-1.241270035E0,1.373734759E0,2.835531586E0
1.626294083E0,2.581621724E0,-1.387735478E0,1.171791372E0,3.156529028E0
1.636252083E0,1.519662112E0,-9.260749984E-1,1.673465518E0,2.442841517E0
1.646211083E0,-2.451626426E-1,2.043543398E-1,2.191983008E0,2.215097046E0
1.656169083E0,-6.698973709E-1,1.622183975E0,2.253649060E0,2.856427388E0
1.666128083E0,-1.742738067E0,2.738028603E0,1.691183167E0,3.659786484E0
1.676086083E0,-2.144948151E0,2.704234913E0,2.111907874E0,4.046460664E0
1.686045083E0,-1.444971533E0,2.212832571E0,1.275352578E0,2.934466718E0
1.696003083E0,-1.387947732E0,2.351166291E0,1.420054793E-2,2.730308314E0
1.705962083E0,-2.080679065E0,2.330951589E0,1.160321474E-2,3.124531216E0
1.715920083E0,-2.439395220E0,1.820205781E0,-6.945441524E-2,3.044441170E0
1.725879083E0,-3.290748065E0,1.718088252E0,2.562694105E-1,3.721091786E0
1.735838083E0,-4.367374833E0,1.705038436E0,1.657578633E0,4.972794579E0
1.745796083E0,-4.827757112E0,1.297079077E0,3.357955377E0,6.022085783E0
1.755755083E0,-5.660569021E0,1.112270225E0,3.852656718E0,6.937013081E0
1.765713083E0,-5.653388055E0,1.232212991E-1,3.983615638E0,6.917020568E0
1.775672083E0,-5.031260097E0,-2.124916760E0,3.582400750E0,6.531649450E0
1.785630083E0,-3.911225354E0,-3.801221686E0,2.586317039E0,6.036224474E0
1.795589083E0,-2.728151194E0,-1.884555851E0,2.091488228E0,3.920291150E0
1.805547083E0,-3.651996065E0,-2.457578307E0,2.512223461E0,5.068336325E0
1.815506083E0,-4.929045505E0,-3.442644110E0,2.689783520E0,6.586518309E0
1.825464083E0,-5.458383413E0,-3.446530754E0,1.949694710E0,6.743428889E0
1.835423083E0,-5.303939736E0,-4.161345266E0,5.839522178E-1,6.766799195E0
1.845381083E0,-5.617841662E0,-4.435864440E0,-4.564804316E-2,7.158150739E0
1.855340083E0,-5.595810522E0,-1.959572704E0,-2.004133165E-1,5.932384519E0
1.865298083E0,-4.962878079E0,1.080722158E0,-7.445446801E-1,5.133465301E0
1.875257083E0,-4.505044602E0,2.281306390E0,-1.949134254E-1,5.053491561E0
1.885215083E0,-4.056652039E0,1.920217434E0,1.056637550E0,4.610872333E0
1.895174083E0,-3.845096853E0,5.360715616E-1,1.894289857E0,4.319777378E0
1.905133083E0,-3.607982903E0,-4.431902951E-1,2.241371222E0,4.270562401E0
1.915091083E0,-3.191186355E0,-5.221978730E-1,1.359161890E0,3.507660475E0
1.925050083E0,-2.455417761E0,-2.911533326E-2,4.507584194E-1,2.496619161E0
1.935008083E0,-1.643547070E0,7.996394849E-1,-1.982183083E-1,1.838466963E0
1.944967083E0,-3.160905379E-1,1.521240276E0,-5.675436151E-1,1.654143573E0
1.954925083E0,8.821021825E-1,1.407842299E0,-1.079555054E0,1.981303438E0
1.964884083E0,1.714975487E0,1.225400107E0,-1.545801505E0,2.613857042E0
1.974842083E0,2.568219906E0,1.017031654E0,-1.915601642E0,3.361493198E0
1.984801083E0,2.985981245E0,1.218063313E0,-2.266072639E0,3.941427081E0
1.994759083E0,3.276048750E0,3.073695912E0,-3.042106329E0,5.425358319E0
2.004718083E0,2.448803390E0,4.080896934E0,-5.006275529E0,6.907470775E0
2.014676083E0,-1.112409389E-1,2.803787853E0,-6.445788687E0,7.030063489E0
2.024635083E0,1.273373880E0,1.685454942E0,-6.762991950E0,7.085216970E0
2.034593083E0,1.428548459E0,8.872670281E-1,-5.464966793E0,5.717854102E0
2.044552083E0,1.992269749E0,1.446966603E-2,-2.638178918E0,3.305954647E0
2.054510083E0,2.367444647E0,-7.651939760E-1,-3.866242724E0,4.597624254E0
2.064469083E0,3.555234586E0,-1.596512798E0,-4.707520816E0,6.111407228E0
2.074428083E0,4.433030294E0,-2.135600061E0,-4.415051275E0,6.610992586E0
2.084386083E0,5.079803681E0,-2.198916197E0,-3.543920224E0,6.572595259E0
2.094345083E0,7.648431723E0,-1.505472235E0,-1.338683771E0,7.909300141E0
2.104303083E0,1.014448412E1,-1.051124137E0,-7.161248732E-1,1.022390605E1
2.114262083E0,1.131371208E1,-1.851779868E0,-1.643971578E0,1.158152892E1
2.124220083E0,1.107261150E1,-1.278808283E0,-7.926883149E-1,1.117436489E1
2.134179083E0,9.705110307E0,-8.063976967E-1,4.428096414E-1,9.748616501E0
2.144137083E0,7.629330039E0,-8.876403728E-1,9.437756896E-1,7.738558963E0
2.154096083E0,5.244318602E0,-3.262404272E-1,6.029449975E-1,5.288936858E0
2.164054083E0,2.774406763E0,1.331785226E0,-2.669127645E0,4.073723992E0
2.174013083E0,7.028411686E-1,-3.717253330E-1,-4.919828539E0,4.983661133E0
2.183971083E0,-9.558864427E-1,-1.970231886E0,-3.991420501E0,4.552688238E0
2.193930083E0,-1.789045676E0,-1.027567752E0,-1.462716079E0,2.529054812E0
2.203888083E0,-2.311416042E-1,5.644728767E-1,-1.801368244E0,1.901836907E0
2.213847083E0,6.382364523E-1,3.181130898E-1,-1.584907683E0,1.737951113E0
2.223806083E0,-3.374626958E-1,-5.774471173E-1,4.115244064E-1,7.852888522E-1
2.233764083E0,-5.606953561E-1,-5.552700171E-1,1.473839822E0,1.671797803E0
2.243723083E0,3.234428269E-1,-3.128100307E-1,2.336023172E0,2.378963984E0
2.253681083E0,8.729249775E-1,-1.589492485E-1,3.133957901E0,3.257139083E0
2.263640083E0,2.139216710E0,-1.539576267E-1,3.231021388E0,3.878073013E0
2.273598083E0,3.251282283E0,-4.089767745E-1,2.729835193E0,4.264985189E0
2.283557083E0,3.317841139E0,-8.420560643E-1,2.471344407E0,4.221927452E0
2.293516167E0,2.818348004E0,-4.390000342E-1,2.593051862E0,3.854831314E0
2.303475167E0,2.442609435E0,-4.140223369E-2,2.458176477E0,3.465643748E0
2.313433167E0,2.958870630E0,-8.209929317E-3,1.500636588E0,3.317663783E0
2.323392167E0,2.864725780E0,2.014283931E-1,1.855920281E0,3.419308012E0
2.333350167E0,1.016298705E0,2.099791128E0,2.382573294E0,3.334462677E0
2.343309167E0,2.148231947E-1,2.959591591E0,2.831865013E0,4.101803365E0
2.353267167E0,5.162799060E-1,1.853110694E0,2.433882319E0,3.102313222E0
2.363226167E0,1.154310536E-1,1.247817163E0,1.633422031E0,2.058747078E0
2.373185167E0,-3.241778219E-1,3.171608707E-1,1.726450063E0,1.785024397E0
2.383143167E0,-8.776898736E-1,-2.384604178E-1,2.920853788E0,3.059181220E0
2.393102167E0,-2.506652818E0,-5.999430370E-1,3.875263808E0,4.654128230E0
2.403060167E0,-4.897230220E0,-4.838547564E-1,3.028481147E0,5.778293633E0
2.413019167E0,-5.658668675E0,-5.142617396E-1,1.489919665E0,5.874083496E0
2.422977167E0,-4.997946171E0,3.919289249E-1,3.699229288E-1,5.026919253E0
2.432936167E0,-4.709870228E0,1.275089161E0,-4.589723687E-1,4.900957617E0
2.442894167E0,-4.612542738E0,1.080931488E0,-5.932299949E-1,4.774503662E0
2.452853167E0,-4.628045461E0,1.778475957E0,1.474195625E-1,4.960192944E0
2.462811167E0,-6.693644557E0,2.360664800E0,-4.432095909E-1,7.111543468E0
2.472770167E0,-8.183387051E0,3.064323117E0,-8.102102275E-1,8.775781470E0
2.482728167E0,-8.491152323E0,4.979295892E0,-6.071633251E-1,9.862134792E0
2.492687167E0,-8.301498469E0,5.472948827E0,-1.501210784E0,1.005592758E1
2.502646167E0,-8.261367273E0,5.267115726E0,-2.393427919E0,1.008569256E1
2.512604167E0,-8.418367352E0,5.148705516E0,-2.274188574E0,1.012669793E1
2.522563167E0,-9.622789696E0,4.325865449E0,-3.240748816E0,1.103692196E1
2.532521167E0,-9.749897055E0,3.980971527E0,-3.879438428E0,1.122313100E1
2.542480167E0,-8.375643502E0,4.397250012E0,-2.982217977E0,9.918711398E0
2.552438167E0,-8.504292771E0,3.659261230E0,-3.006728920E0,9.734146449E0
2.562397167E0,-8.239915009E0,1.924725053E0,-2.768958328E0,8.903251996E0
2.572355167E0,-6.319053211E0,1.244412329E0,-2.258530315E0,6.824950895E0
2.582314167E0,-4.592135371E0,2.823021099E-1,-2.221649149E0,5.109121909E0
2.592272167E0,-3.098846540E0,-1.195580769E0,-1.941548077E0,3.847320131E0
2.602231167E0,-1.399754430E0,-2.603316064E0,-1.267766401E0,3.216177644E0
2.612189167E0,-6.386504352E-1,-3.103503263E0,-1.163855824E0,3.375524738E0
2.622148167E0,-1.603419383E0,-3.419803716E0,-1.688300635E0,4.137193518E0
2.632107167E0,-2.743809453E0,-3.955640219E0,-2.070069877E0,5.240302392E0
2.642065167E0,-2.431154155E0,-4.391945126E0,-2.882453661E-1,5.028198276E0
2.652024167E0,-9.078094661E-1,-3.942877502E0,5.758458427E0,7.037772693E0
2.661982167E0,-1.092503713E0,-3.930713247E0,-1.763363243E0,4.444493325E0
2.671941167E0,2.290336829E0,-2.343912820E0,-2.141074955E-1,3.284115120E0
2.681899167E0,9.102809672E0,-1.864769458E0,3.591002004E0,9.961616558E0
2.691858167E0,8.912358842E0,-6.491824400E-1,7.204953745E-2,8.936261472E0
2.701816167E0,5.336303490E0,-1.206897178E0,4.464519889E0,7.061492306E0
2.711775167E0,4.857805368E0,-3.123199901E0,4.310207775E0,7.206284874E0
2.721733167E0,5.153216643E0,-2.233882547E0,3.269182949E0,6.498725272E0
2.731692167E0,5.154132902E0,-1.316856700E0,1.537642154E0,5.537467014E0
2.741650167E0,4.304621930E0,-2.575987932E-1,-1.125206020E0,4.456704577E0
2.751609167E0,2.359564354E0,6.405899566E-1,-2.638559864E0,3.597206915E0
2.761568167E0,2.890407336E-1,-6.389188224E-1,-2.217361239E0,2.325608022E0
2.771526167E0,-2.357269907E-1,-1.533325886E0,1.995397425E-1,1.564120070E0
2.781485167E0,6.683215463E-1,-1.249169916E-1,2.159893342E0,2.264375674E0
2.791443167E0,1.515305352E0,1.645274630E0,2.921653394E0,3.679556695E0
2.801402167E0,1.664274280E0,1.586937252E0,3.268322239E0,3.996261875E0
2.811360167E0,1.483609934E0,3.858747178E-1,4.066418644E0,4.345774766E0
2.821319167E0,1.772070624E0,-7.497545493E-1,4.361565040E0,4.767139161E0
2.831277167E0,7.821785295E-1,-1.100419673E0,1.950094952E0,2.371834107E0
2.841236167E0,3.113665724E-1,-1.425694433E0,-1.581759542E-1,1.467846515E0
2.851194167E0,3.844368875E-1,-1.442968277E0,-1.122458414E0,1.868117250E0
2.861153167E0,1.932995939E-1,-1.515247464E0,-1.524075590E0,2.157810468E0
2.871111167E0,-1.438637245E-1,-7.041731644E-1,-2.193355495E0,2.308108521E0
2.881070167E0,-4.369472229E-1,1.040186335E0,-2.475376062E0,2.720367096E0
2.891028167E0,-6.763462651E-1,2.206594761E0,-2.442167970E0,3.360162065E0
2.900987167E0,-4.241307110E-1,2.061234734E0,-2.348098549E0,3.153116282E0
2.910946167E0,-1.205228090E-2,1.288177276E0,-1.674791228E0,2.112929628E0
2.920904167E0,7.485242951E-1,1.170685664E0,-6.171848680E-1,1.520431092E0
2.930863167E0,2.424557911E0,2.383891695E0,-1.818139448E-1,3.405066370E0
2.940821167E0,4.754307897E0,4.167927477E0,1.052101207E-1,6.323458880E0
2.950780167E0,7.017798990E0,5.763777639E0,4.868543780E-1,9.094375323E0
2.960738167E0,7.742063772E0,6.177227826E0,6.853585055E-1,9.928112174E0
2.970697167E0,7.996993604E0,6.135319662E0,6.680087203E-1,1.010149938E1
2.980655167E0,8.276531442E0,5.549962505E0,8.225852747E-1,9.998985101E0
2.990614167E0,8.423912267E0,5.089328211E0,2.289594233E0,1.010474152E1
3.000572167E0,8.928857930E0,5.112604807E0,3.657219967E0,1.091963780E1
3.010531167E0,9.080465122E0,5.556740012E0,3.911465675E0,1.134159469E1
3.020489167E0,7.945220602E0,5.881028931E0,3.262112496E0,1.040934242E1
3.030448167E0,7.391619673E0,5.019936379E0,3.272190757E0,9.515410395E0
3.040407167E0,5.655920484E0,4.148633419E0,3.724788637E0,7.941954807E0
3.050365167E0,2.081197128E0,3.844987510E0,3.986217649E0,5.916522762E0
3.060324167E0,-3.731789508E0,1.831799347E0,4.621749764E0,6.216294126E0
3.070282167E0,-1.670350707E1,-1.831391212E0,3.157317235E0,1.709765464E1
3.080241167E0,-2.888522193E1,-5.979756829E0,4.534081583E0,2.984411891E1
3.090199167E0,-2.757460831E1,-7.565703562E0,3.213778242E0,2.877372524E1
3.100158167E0,-2.132150935E1,-6.790372707E0,-9.559323433E-1,2.239709198E1
3.110116167E0,-1.532623869E1,-5.190839383E0,2.369433577E0,1.635397876E1
3.120075167E0,-1.092107973E1,-4.203501352E0,6.176564752E0,1.323213355E1
3.130033167E0,-5.082454224E0,-1.806395534E0,6.396849831E0,8.367442472E0
3.139992167E0,-2.179465435E0,1.148502497E0,3.690231008E0,4.436995882E0
3.149951167E0,-1.556463026E0,2.151867746E0,1.053013080E0,2.856912406E0
3.159909167E0,5.205165061E-1,3.720487425E0,1.591647184E-1,3.760092755E0
3.169868167E0,2.408754056E0,4.434559926E0,-4.188521370E-1,5.063877462E0
3.179826167E0,3.091901218E0,3.457754484E0,-1.857294669E0,4.996545077E0
3.189785167E0,3.586690560E0,3.048799052E0,-3.618256461E0,5.937280914E0
3.199743167E0,3.962151971E0,3.023435585E0,-5.025752020E0,7.077993667E0
3.209702167E0,4.925155352E0,2.848007421E0,-5.650341656E0,8.018395247E0
3.219660167E0,5.976474202E0,2.411501663E0,-5.259492711E0,8.318404158E0
3.229619167E0,6.948922298E0,1.347408401E0,-4.462401443E0,8.367559808E0
3.239577167E0,8.352934670E0,-4.449696028E-1,-4.429240714E0,9.465077330E0
3.249536167E0,1.014535419E1,-2.702200082E0,-5.846572459E0,1.201717548E1
3.259494167E0,1.175011434E1,-6.029782682E0,-6.432700864E0,1.469023848E1
3.269453167E0,1.252626907E1,-8.877078497E0,-4.136100497E0,1.590022851E1
3.279411167E0,1.233735138E1,-1.013735169E1,2.155230699E-1,1.596942668E1
3.289370167E0,1.097766558E1,-1.107960126E1,6.400296472E-2,1.559714082E1
3.299328583E0,8.959119610E0,-1.111638960E1,-3.713678489E-1,1.428208164E1
3.309286583E0,4.846269981E0,-1.118812558E1,-3.624107185E0,1.271985218E1
3.319245583E0,7.226790172E-1,-1.012031641E1,-3.803600626E0,1.083561013E1
3.329203583E0,-3.844878752E0,-7.987958486E0,-9.137239248E-1,8.912096544E0
3.339162583E0,-5.530854388E0,-3.970683936E0,6.859924167E-2,6.808919668E0
3.349120583E0,-3.837201943E0,1.004835239E0,-1.110754188E0,4.119173154E0
3.359079583E0,-1.723463305E0,4.850333796E0,-2.809598815E0,5.864291023E0
3.369037583E0,-9.731579483E-2,7.278351504E0,-4.153425797E0,8.380621507E0
3.378996583E0,-1.248760611E-2,7.304859856E0,-3.982197688E0,8.319797587E0
3.388954583E0,-1.551055813E0,3.806860741E0,-2.163479585E0,4.645277898E0
3.398913583E0,-9.502304310E-1,2.470862011E0,-2.190961061E0,3.436336322E0
3.408871583E0,-7.310914063E-1,1.607782575E0,-2.190347688E0,2.813731055E0
3.418830583E0,-3.799605516E-1,2.683468527E-1,-1.295404581E0,1.376391326E0
3.428789583E0,2.392040375E-1,-5.727102149E-1,3.727675992E-1,7.239967160E-1
3.438747583E0,3.209101054E-1,-1.003071134E0,1.740479872E0,2.034307052E0
3.448706583E0,-4.331441939E-2,-1.155840753E0,2.201167960E0,2.486560752E0
3.458664583E0,-7.294231957E-1,-8.981299853E-1,2.173229964E0,2.462036585E0
3.468623583E0,-1.692885583E0,-2.476377690E-1,1.298191803E0,2.147670370E0
3.478581583E0,-2.557146449E0,8.450629950E-1,-1.350246347E-2,2.693197309E0
3.488540583E0,-3.097248204E0,1.998609885E0,-8.585664817E-1,3.784775332E0
3.498498583E0,-3.346824617E0,2.876186907E0,-1.192198155E0,4.571107370E0
3.508457583E0,-3.400059130E0,3.120035096E0,-1.105288577E0,4.745174805E0
3.518415583E0,-2.720741603E0,3.071113197E0,-8.002908647E-1,4.180267528E0
3.528374583E0,-1.505326786E0,3.182705553E0,-3.127675653E-1,3.534607039E0
3.538332583E0,-2.187262112E-1,3.714187050E0,2.990336251E-1,3.732619417E0
3.548291583E0,7.521331966E-1,4.273969656E0,1.168357887E0,4.494171906E0
3.558250583E0,1.051264178E0,4.062308051E0,1.627967749E0,4.500864591E0
3.568208583E0,1.243989575E0,3.610528781E0,1.915070861E0,4.272110081E0
3.578167583E0,1.214812554E0,2.923833529E0,1.686527321E0,3.587331383E0
3.588125583E0,8.710155693E-1,2.043408328E0,1.394648788E0,2.622828808E0
3.598084583E0,5.879305172E-1,1.601956995E0,1.982496420E0,2.615763858E0
3.608042583E0,4.514719990E-1,1.871282671E0,2.826790507E0,3.419981048E0
3.618001583E0,3.128476721E-1,2.322722803E0,3.832998672E0,4.492749014E0
3.627959583E0,-1.665899806E0,1.184002113E0,1.364749635E0,2.457564797E0
3.637918583E0,-3.180899348E0,2.879250848E-1,1.993820138E-1,3.200121045E0
3.647876583E0,-3.577673276E0,-4.129759777E-1,-1.052174736E0,3.751981730E0
3.657835583E0,-3.302416184E0,1.746329427E-2,-1.107691855E0,3.483279901E0
3.667793583E0,-3.205688034E0,6.775338346E-1,5.932071908E-1,3.329772161E0
3.677752583E0,-4.344035672E0,-3.260805058E-1,1.214039990E0,4.522263539E0
3.687711583E0,-5.206348538E0,-1.190362714E0,1.279169787E0,5.491748704E0
3.697669583E0,-5.864956105E0,-1.762633803E0,1.433564054E0,6.289649746E0
3.707628583E0,-6.329095219E0,-2.238842740E0,1.392558846E0,6.856317033E0
3.717586583E0,-6.300516368E0,-2.776754420E0,1.175222372E0,6.984842106E0
3.727545583E0,-5.655721679E0,-3.667033934E0,8.472882991E-1,6.793542746E0
3.737503583E0,-4.280563561E0,-5.167332991E0,1.348424209E0,6.844180191E0
3.747462583E0,-2.703143530E0,-5.046996124E0,2.516259209E0,6.253856028E0
3.757420583E0,-1.643799085E0,-3.344428428E0,3.019619107E0,4.796392029E0
3.767379583E0,-1.705547729E0,-2.922995038E0,2.104452821E0,3.985161819E0
3.777337583E0,-1.602736136E0,-2.461872502E0,1.899881988E0,3.498446927E0
3.787296583E0,-1.137308003E0,-2.139825405E0,2.150463245E0,3.239878767E0
3.797254583E0,-9.319713306E-1,-1.956085424E0,1.624006845E0,2.707810736E0
3.807213583E0,-6.317641693E-1,-1.399429325E0,9.652431571E-1,1.813621447E0
3.817171583E0,-3.792837363E-1,-8.942281383E-1,5.539178485E-1,1.118179368E0
3.827130583E0,-2.331109464E-1,-5.844087392E-1,3.838469034E-1,7.370296691E-1
3.837089583E0,5.844935238E-2,-6.045500582E-1,2.929933783E-1,6.743457714E-1
3.847047583E0,5.708145475E-1,-9.721329314E-1,5.521881690E-1,1.255302138E0
3.857006583E0,8.066637450E-1,-1.412318342E0,6.775683331E-1,1.761944478E0
3.866964583E0,9.333986360E-1,-1.652148909E0,4.613271886E-1,1.952857344E0
3.876923583E0,8.371616524E-1,-1.864625616E0,-1.841041164E-1,2.052209211E0
3.886881583E0,2.751769853E-1,-2.190105028E0,-1.134263358E0,2.481700178E0
3.896840583E0,-2.571757472E-1,-2.623487788E0,-1.993543857E0,3.305002973E0
3.906798583E0,-5.490605664E-1,-3.208688825E0,-2.476713320E0,4.090386333E0
3.916757583E0,-5.858109015E-1,-3.693276823E0,-2.181226324E0,4.329112654E0
3.926715583E0,-5.460317087E-1,-3.793641356E0,-1.502218406E0,4.116615783E0
3.936674583E0,-2.934442717E-1,-3.268832116E0,-7.431425178E-1,3.365060734E0
3.946633583E0,8.307899415E-2,-2.226946580E0,4.264900625E-2,2.228903795E0
3.956591583E0,4.636543804E-1,-1.166183892E0,4.618540227E-1,1.337261902E0
3.966550583E0,7.982683128E-1,-4.591567022E-1,4.163428044E-1,1.010642621E0
3.976508583E0,1.054851737E0,-1.428474784E-2,1.282107282E-1,1.062710794E0
3.986467583E0,1.245376827E0,4.425739986E-1,-2.337997484E-1,1.342198759E0
3.996425583E0,1.376572559E0,8.597219646E-1,-4.111633408E-1,1.674254807E0
4.006384583E0,1.362952055E0,1.218229959E0,-6.120263082E-1,1.927770406E0
4.016342583E0,1.242208806E0,1.443333728E0,-9.153237230E-1,2.112844643E0
4.026301583E0,1.139808272E0,1.369781018E0,-1.198805509E0,2.147695877E0
4.036259583E0,1.177044511E0,1.086317359E0,-1.365306144E0,2.104656754E0
4.046218583E0,1.397965767E0,7.408878314E-1,-1.477334118E0,2.164656823E0
4.056176583E0,1.816169155E0,3.121126771E-1,-1.548944091E0,2.407303994E0
4.066135583E0,2.370222074E0,-1.787809575E-1,-1.645921040E0,2.891188576E0
4.076094583E0,2.823451454E0,-5.558146852E-1,-1.783509825E0,3.385515525E0
4.086052583E0,3.033568810E0,-8.394297874E-1,-1.910922993E0,3.682228778E0
4.096011583E0,3.136325439E0,-1.073599080E0,-1.973157540E0,3.857784716E0
4.105969583E0,3.044108416E0,-9.664728266E-1,-2.110958287E0,3.828421432E0
4.115928583E0,3.211035898E0,-4.406274605E-1,-2.574272359E0,4.139055722E0
4.125886583E0,3.475985518E0,2.094659758E-1,-3.154728965E0,4.698794118E0
4.135845583E0,3.856575522E0,8.877394831E-1,-3.604313483E0,5.352787296E0
4.145803583E0,4.355634794E0,1.474278948E0,-3.523631555E0,5.793188432E0
4.155762583E0,4.635666137E0,1.733022918E0,-3.270077281E0,5.931793522E0
4.165720583E0,4.622675378E0,1.760610082E0,-3.096796799E0,5.836011131E0
4.175679583E0,4.301575531E0,1.773009687E0,-2.654464290E0,5.356612369E0
4.185637583E0,3.927678249E0,1.876541657E0,-2.125401494E0,4.844109467E0
4.195596583E0,3.605409544E0,2.116642365E0,-1.637732306E0,4.490135854E0
4.205555583E0,3.272859094E0,2.381073922E0,-1.148929636E0,4.207274531E0
4.215513583E0,2.830907239E0,2.515311375E0,-5.961990649E-1,3.833572803E0
4.225472583E0,2.199715512E0,2.414639863E0,2.625075307E-1,3.276910772E0
4.235430583E0,1.409421047E0,2.128650207E0,1.594535708E0,3.010010551E0
4.245389583E0,3.906419528E-1,1.726483392E0,2.997272803E0,3.480946753E0
4.255347583E0,-1.243437306E0,1.085081842E0,4.787691990E0,5.064141934E0
4.265306583E0,-3.636209167E0,1.236001986E-1,7.406547614E0,8.251923514E0
4.275264583E0,-6.040169091E0,-8.671216160E-1,9.085921744E0,1.094483972E1
4.285223583E0,-7.823369890E0,-1.640575515E0,7.707376919E0,1.110406518E1
4.295181042E0,-9.228958672E0,-2.166462981E0,4.983587748E0,1.070996671E1
4.305140042E0,-9.777995850E0,-1.949880359E0,2.520111939E0,1.028407509E1
4.315098042E0,-9.846886575E0,-8.496869731E-1,1.111059267E0,9.945732546E0
4.325057042E0,-9.319554262E0,9.811165935E-1,5.090841763E-1,9.384873367E0
4.335015042E0,-7.671183239E0,3.063825227E0,3.357605714E-1,8.267213102E0
4.344974042E0,-5.325189103E0,4.036920610E0,5.600989401E-1,6.705824171E0
4.354933042E0,-2.661895224E0,3.673672278E0,1.089813263E0,4.665752580E0
4.364891042E0,-4.220403314E-1,2.838101068E0,1.445564441E0,3.212879124E0
4.374850042E0,7.518262178E-1,1.460637394E0,1.319279201E0,2.106941354E0
4.384808042E0,5.454826552E-1,-1.047147446E0,7.509156601E-1,1.399265317E0
4.394767042E0,-4.778268617E-1,-3.973071354E0,1.576466350E-1,4.004805483E0
4.404725042E0,-1.248837794E0,-6.510383463E0,4.109993264E-1,6.641807669E0
4.414684042E0,-1.672731108E0,-9.758312368E0,4.112864832E0,1.072093031E1
4.424642042E0,-2.089093208E0,-1.367797993E1,8.575689029E0,1.627863286E1
4.434601042E0,-1.118386998E0,-1.398383609E1,4.904994738E0,1.486127298E1
4.444559042E0,6.483445340E-1,-1.171199985E1,-2.046932591E0,1.190719212E1
4.454518042E0,1.831601127E0,-8.272917278E0,-6.655759277E0,1.077474151E1
4.464476042E0,2.609954993E0,-4.144385417E0,-7.283341518E0,8.776950451E0
4.474435042E0,3.935991236E0,-6.043489140E-1,-5.178054446E0,6.532190480E0
4.484394042E0,4.829701896E0,1.606494434E0,-3.293481638E0,6.062496686E0
4.494352042E0,5.520908275E0,3.128402461E0,-1.815559291E0,6.600271636E0
4.504311042E0,6.221381321E0,4.193768662E0,-5.841309234E-1,7.525589018E0
4.514269042E0,6.678786782E0,4.774234039E0,6.189270459E-2,8.209953364E0
4.524228042E0,6.707020648E0,5.020676637E0,1.830909401E-1,8.380026381E0
4.534186042E0,6.328746141E0,4.751308275E0,-9.428635240E-6,7.913782790E0
4.544145042E0,5.625636585E0,3.958166801E0,-6.402040404E-1,6.908308955E0
4.554103042E0,4.682856676E0,2.778317381E0,-1.664615173E0,5.693780624E0
4.564062042E0,3.683762233E0,1.420814931E0,-2.673213680E0,4.768111853E0
4.574020042E0,2.752883747E0,-9.439218700E-2,-3.654472945E0,4.576292311E0
4.583979042E0,2.055150706E0,-1.661264718E0,-4.513292100E0,5.230033505E0
4.593937042E0,1.675724298E0,-2.974086839E0,-4.832793319E0,5.916851841E0
4.603896042E0,1.500730582E0,-3.839485865E0,-4.479679381E0,6.087805133E0
4.613855042E0,1.339819885E0,-4.054624810E0,-3.483527842E0,5.510904272E0
4.623813042E0,1.068787406E0,-3.707221262E0,-2.489166135E0,4.591486040E0
4.633772042E0,7.769037563E-1,-2.968226175E0,-1.705648009E0,3.510438890E0
4.643730042E0,4.709324098E-1,-2.119713323E0,-1.097434670E0,2.432966247E0
4.653689042E0,2.460806555E-1,-1.340861274E0,-6.789780238E-1,1.522982535E0
4.663647042E0,1.092704272E-1,-6.481615162E-1,-3.052819598E-1,7.247416452E-1
4.673606042E0,1.335504055E-3,1.887539685E-2,2.200482301E-1,2.208603354E-1
4.683564042E0,-1.527643561E-2,6.598191100E-1,7.516402763E-1,1.000278827E0
4.693523042E0,2.339710718E-1,1.070393052E0,8.911957723E-1,1.412343319E0
4.703481042E0,3.927282393E-1,1.172332824E0,8.446840954E-1,1.497361327E0
4.713440042E0,1.833710217E-1,1.118898044E0,7.842671549E-1,1.378634373E0
4.723398042E0,-2.718353015E-1,9.905499065E-1,7.554555845E-1,1.275067327E0
4.733357042E0,-8.823278850E-1,8.769028383E-1,8.763339043E-1,1.521651141E0
4.743315042E0,-1.599020523E0,9.020131212E-1,1.246211225E0,2.218904396E0
4.753274042E0,-2.361696249E0,1.284712216E0,2.237385468E0,3.497711878E0
4.763233042E0,-3.252117265E0,2.320897887E0,4.676331768E0,6.150683906E0
4.773191042E0,-3.605351071E0,3.308766845E0,5.610975276E0,7.445101607E0
4.783150042E0,-3.367425528E0,3.273730329E0,3.504781301E0,5.860064583E0
4.793108042E0,-2.923456383E0,2.740709844E0,1.470867097E0,4.268669312E0
4.803067042E0,-2.320708437E0,2.357162903E0,3.676133517E-1,3.328219370E0
4.813025042E0,-1.727640556E0,2.150952657E0,-6.190564156E-2,2.759560025E0
4.822984042E0,-1.243882864E0,2.038993095E0,-4.191971228E-2,2.388827052E0
4.832942042E0,-9.135186875E-1,1.944778664E0,2.495367984E-1,2.163087852E0
4.842901042E0,-6.446911937E-1,1.841066015E0,8.617508022E-1,2.132549003E0
4.852859042E0,-3.388496554E-1,1.626010686E0,1.976141520E0,2.581446328E0
4.862818042E0,5.494394660E-2,1.275639092E0,3.754975473E0,3.966120867E0
4.872777042E0,1.470586431E-1,8.534046328E-1,4.685334726E0,4.764691722E0
4.882735042E0,-3.281784868E-1,6.010943538E-1,3.160600154E0,3.233946332E0
4.892694042E0,-1.228991759E0,7.039293355E-1,7.193059047E-1,1.588501885E0
4.902652042E0,-1.987151681E0,1.002496353E0,-5.433207934E-1,2.291062685E0
4.912611042E0,-2.279752492E0,1.235630688E0,-6.349359915E-1,2.669681317E0
4.922569042E0,-2.232076342E0,1.477058714E0,-3.533447568E-1,2.699762908E0
4.932528042E0,-2.169321392E0,1.834345810E0,-1.177151223E-1,2.843349557E0
4.942486042E0,-2.170791675E0,2.154066299E0,8.575760365E-2,3.059361450E0
4.952445042E0,-2.331169398E0,2.233655090E0,3.248457201E-1,3.244856016E0
4.962403042E0,-2.778734288E0,1.919416950E0,6.255420010E-1,3.434651142E0
4.972362042E0,-3.158633151E0,1.339501796E0,9.623946860E-1,3.563345616E0
4.982320042E0,-3.763169761E0,4.746857375E-1,1.376033446E0,4.034878095E0
4.992279042E0,-4.493039099E0,-6.613189209E-1,1.886687307E0,4.917756811E0
5.002238042E0,-4.647236023E0,-1.861276331E0,2.709163531E0,5.692162969E0
5.012196042E0,-4.196874703E0,-3.006694422E0,3.989841753E0,6.524783968E0
5.022155042E0,-3.441986298E0,-2.828275992E0,2.716042196E0,5.217595229E0
5.032113042E0,-2.905256340E0,-1.816348080E0,8.577992539E-1,3.532060915E0
5.042072042E0,-2.414471464E0,-1.366602471E0,-2.487873316E-2,2.774507833E0
5.052030042E0,-1.750692619E0,-1.514949256E0,-1.307765595E-1,2.318857133E0
5.061989042E0,-8.323792148E-1,-1.470736704E0,4.201341025E-1,1.741388605E0
5.071947042E0,-1.611393231E-1,-1.082224308E0,1.037218874E0,1.507646618E0
5.081906042E0,1.297169709E-1,-1.140145656E0,1.358425140E0,1.778223122E0
5.091864042E0,3.382637644E-1,-1.639311347E0,1.765802994E0,2.433068902E0
5.101823042E0,5.884287000E-1,-2.476813892E0,2.186416020E0,3.355781638E0
5.111781042E0,5.583459449E-1,-3.498860410E0,2.021352046E0,4.079171295E0
5.121740042E0,1.102182609E-1,-4.154806910E0,9.201143467E-1,4.256897806E0
5.131699042E0,-2.511683178E-1,-4.670154769E0,-6.322266841E-1,4.719442941E0
5.141657042E0,-1.496846277E-1,-5.305318510E0,-1.969679470E0,5.661134797E0
5.151616042E0,4.897008026E-1,-6.100770219E0,-2.347839518E0,6.555269220E0
5.161574042E0,1.169226199E0,-7.162236911E0,-1.333244545E0,7.378500423E0
5.171533042E0,1.920167733E0,-7.624775058E0,1.045507156E0,7.932044126E0
5.181491042E0,2.291477036E0,-5.784491401E0,3.002456360E0,6.908397207E0
5.191450042E0,1.717713153E0,-3.054045174E0,3.012514740E0,4.620927987E0
5.201408042E0,1.193310880E0,-1.330299448E0,2.096595186E0,2.754886359E0
5.211367042E0,1.170571643E0,-6.505647218E-1,9.926524191E-1,1.666982680E0
5.221325042E0,1.364794512E0,-1.854608166E-1,-1.986275768E-1,1.391586393E0
5.231284042E0,1.674937847E0,4.104341930E-1,-1.041995025E0,2.014851521E0
5.241242042E0,2.099778410E0,8.650025851E-1,-1.362844174E0,2.648517148E0
5.251201042E0,2.229463221E0,1.481586798E0,-1.376738327E0,3.010151843E0
5.261160042E0,1.667417743E0,2.102696756E0,-9.793068802E-1,2.856686462E0
5.271118042E0,5.458551228E-1,2.241351780E0,-6.954792318E-1,2.409420466E0
5.281077042E0,-1.903180987E-1,1.481104403E0,-8.384752294E-1,1.712580492E0
5.291035042E0,3.271809518E-2,5.428069693E-1,-9.976095423E-1,1.136193064E0
5.300993958E0,7.172340900E-1,-2.157938325E-1,-1.190702437E0,1.406685470E0
5.310951958E0,1.439084557E0,-8.002791703E-1,-1.314392098E0,2.106902394E0
5.320910958E0,2.111714916E0,-1.235527192E0,-1.448600900E0,2.843292440E0
5.330868958E0,2.757643965E0,-1.559444813E0,-1.639543481E0,3.567151692E0
5.340827958E0,3.382775638E0,-1.737176195E0,-1.925170026E0,4.262303577E0
5.350785958E0,4.016236085E0,-1.659614634E0,-2.305880775E0,4.919508021E0
5.360744958E0,4.684338360E0,-1.334781339E0,-2.642916040E0,5.541630833E0
5.370702958E0,5.312564380E0,-7.683948880E-1,-2.827080821E0,6.066807806E0
5.380661958E0,5.771139868E0,-8.683699965E-3,-2.783476672E0,6.407329644E0
5.390620958E0,5.928528787E0,8.075110066E-1,-2.599874685E0,6.523716425E0
5.400578958E0,5.635409036E0,1.442159607E0,-2.534491997E0,6.345179983E0
5.410537958E0,5.018587427E0,1.740822519E0,-2.655439314E0,5.938690154E0
5.420495958E0,4.368527319E0,1.846793362E0,-2.727765863E0,5.471323722E0
5.430454958E0,3.829919236E0,1.990986870E0,-2.614398876E0,5.046522719E0
5.440412958E0,3.400055915E0,2.216840837E0,-2.267114320E0,4.649147326E0
5.450371958E0,3.032464855E0,2.532067741E0,-1.800456810E0,4.341526790E0
5.460329958E0,2.660374364E0,2.905170386E0,-1.249161730E0,4.132555112E0
5.470288958E0,2.150432255E0,3.203757868E0,-5.857144225E-1,3.902753483E0
5.480246958E0,1.393841726E0,3.311458318E0,3.173196226E-1,3.606832779E0
5.490205958E0,3.852636838E-1,3.256867543E0,1.618933800E0,3.657398112E0
5.500163958E0,-5.332444328E-1,3.225895427E0,2.895287422E0,4.367314986E0
5.510122958E0,-1.654477855E0,2.938636340E0,4.619913154E0,5.719831996E0
5.520081958E0,-3.687448903E0,2.089934623E0,7.375032291E0,8.506245202E0
5.530039958E0,-6.191124319E0,7.431723386E-1,9.558200183E0,1.141234052E1
5.539998958E0,-8.408304294E0,-1.055014874E0,8.261336868E0,1.183479296E1
5.549956958E0,-1.049999484E1,-2.951499045E0,5.589756900E0,1.225588105E1
5.559915958E0,-1.140082039E1,-3.868176983E0,4.003023131E0,1.268722558E1
5.569873958E0,-1.143054062E1,-2.908306832E0,3.593771245E0,1.233007296E1
5.579832958E0,-1.046493142E1,-2.018651801E-1,3.251089325E0,1.096016063E1
5.589790958E0,-7.983902273E0,2.851967155E0,1.335864974E0,8.582595609E0
5.599749958E0,-4.968942227E0,4.299833645E0,-4.585876219E-1,6.587052363E0
5.609707958E0,-1.794347931E0,4.440595422E0,-9.435977881E-1,4.881490447E0
5.619666958E0,8.512107575E-1,4.088515272E0,-5.301553488E-1,4.209700889E0
5.629624958E0,2.447093664E0,3.114344001E0,2.499727084E-1,3.968613399E0
5.639583958E0,2.668986728E0,7.097601789E-1,1.014420507E0,2.942158838E0
5.649542958E0,1.700379083E0,-2.792907354E0,1.878868264E0,3.771175740E0
5.659500958E0,6.905924213E-1,-7.156092072E0,4.856911329E0,8.676183452E0
5.669459958E0,-4.319659799E-1,-1.230508644E1,1.050282138E1,1.618366472E1
5.679417958E0,-1.042626963E0,-1.442211998E1,9.602459512E0,1.735776035E1
5.689376958E0,-7.275444853E-1,-1.304263200E1,1.431935166E0,1.314115706E1
5.699334958E0,-2.189232624E-1,-1.101370898E1,-6.205772763E0,1.264362798E1
5.709293958E0,5.527174151E-1,-8.530193013E0,-8.688986433E0,1.218885452E1
5.719251958E0,2.222341313E0,-4.667494286E0,-7.008134712E0,8.708516289E0
5.729210958E0,3.980026032E0,-1.273023632E0,-4.430965058E0,6.090537557E0
5.739168958E0,4.679846529E0,4.522119641E-1,-3.483940070E0,5.851777304E0
5.749127958E0,5.245450038E0,1.951939164E0,-2.526323436E0,6.140612568E0
5.759086958E0,5.808935101E0,3.202986036E0,-1.488813372E0,6.798485994E0
5.769044958E0,6.139333776E0,3.874642834E0,-8.710071639E-1,7.311834912E0
5.779003958E0,6.203546144E0,4.063799676E0,-5.615110427E-1,7.437321239E0
5.788961958E0,6.113417162E0,4.056254429E0,-6.611307867E-1,7.366421336E0
5.798920958E0,5.707352593E0,3.652972550E0,-1.128444939E0,6.869604796E0
5.808878958E0,4.906320301E0,2.575068165E0,-1.941494282E0,5.871316292E0
5.818837958E0,3.970832455E0,1.045485667E0,-2.998883711E0,5.084668542E0
5.828795958E0,3.074864770E0,-7.499977934E-1,-4.141228505E0,5.212203332E0
5.838754958E0,2.244083015E0,-2.426354760E0,-4.955557365E0,5.956564010E0
5.848712958E0,1.518578038E0,-3.677344914E0,-5.119746011E0,6.483883412E0
5.858671958E0,9.310071248E-1,-4.387864646E0,-4.679620242E0,6.482204566E0
5.868629958E0,6.595741117E-1,-4.184489130E0,-3.614052898E0,5.568335985E0
5.878588958E0,8.062275428E-1,-3.258200124E0,-2.498131086E0,4.184080523E0
5.888546958E0,1.018518308E0,-2.169936812E0,-1.723976691E0,2.952643044E0
5.898505958E0,1.073237137E0,-1.293060286E0,-1.141974008E0,2.031735094E0
5.908464958E0,9.679311222E-1,-6.434112382E-1,-7.440336335E-1,1.380019828E0
5.918422958E0,7.937893456E-1,-1.521334416E-1,-4.066791111E-1,9.047839569E-1
5.928381958E0,5.419871897E-1,1.870495051E-1,-5.679047903E-2,5.761621209E-1
5.938339958E0,1.961173671E-1,4.347007227E-1,2.879894042E-1,5.571037937E-1
5.948298958E0,-9.036228597E-2,6.680742091E-1,6.219776845E-1,9.172484569E-1
5.958256958E0,-1.989819181E-1,7.995435905E-1,7.838123146E-1,1.137200731E0
5.968215958E0,-2.898230910E-1,8.516732723E-1,8.576778511E-1,1.242962623E0
5.978173958E0,-5.939204049E-1,8.398601425E-1,9.935494550E-1,1.430121333E0
5.988132958E0,-1.052919817E0,8.661696893E-1,1.293165536E0,1.879140009E0
5.998090958E0,-1.659954357E0,1.120610694E0,2.124230297E0,2.919515567E0
6.008049958E0,-2.801120353E0,2.054981137E0,5.233969030E0,6.282010388E0
6.018007958E0,-3.564034061E0,3.033032620E0,6.921967803E0,8.355552880E0
6.027966958E0,-3.523478358E0,2.955865161E0,4.249211376E0,6.261616078E0
6.037924958E0,-3.083698744E0,2.407339030E0,1.845846698E0,4.325694069E0
6.047883958E0,-2.190585669E0,2.115862346E0,6.255456555E-1,3.109155257E0
6.057842958E0,-1.440239382E0,2.061007862E0,2.004858220E-1,2.522347607E0
6.067800958E0,-1.054133699E0,2.076793590E0,1.359641361E-1,2.332971435E0
6.077759958E0,-9.514302796E-1,2.187550380E0,2.944632952E-1,2.403602478E0
6.087717958E0,-1.043424523E0,2.439320961E0,1.044467082E0,2.851303732E0
6.097676958E0,-1.269684872E0,2.731162511E0,2.620945419E0,3.992581023E0
6.107634958E0,-1.453552907E0,2.904067016E0,4.271394542E0,5.365746232E0
6.117593958E0,-1.687829788E0,2.624455503E0,4.003587973E0,5.075948457E0
6.127551958E0,-2.106847694E0,2.062203033E0,1.705129945E0,3.405724106E0
6.137510958E0,-2.466371934E0,1.514916512E0,3.100509489E-1,2.911029740E0
6.147468958E0,-2.630137242E0,1.226179249E0,1.472795217E-1,2.905654611E0
6.157427958E0,-2.435799767E0,1.360957569E0,3.304274721E-1,2.809716770E0
6.167385958E0,-2.069140462E0,1.690044129E0,6.825877292E-1,2.757447627E0
6.177344958E0,-1.927902430E0,2.120783363E0,9.669493747E-1,3.024817506E0
6.187302958E0,-2.112672983E0,2.307672654E0,7.085984834E-1,3.207935788E0
6.197261958E0,-2.576547803E0,1.990558854E0,6.674834941E-1,3.323621120E0
6.207219958E0,-3.205583369E0,1.466498643E0,8.876896356E-1,3.635158304E0
6.217178958E0,-3.882577798E0,8.439181101E-1,1.368153884E0,4.202196234E0
6.227137958E0,-4.487577507E0,-2.880747736E-2,2.725435455E0,5.250445712E0
6.237095958E0,-4.719891186E0,-1.160892162E0,4.244386253E0,6.452895326E0
6.247054958E0,-4.528469425E0,-2.000806099E0,4.197544209E0,6.490734763E0
6.257012958E0,-4.201413311E0,-2.004134334E0,3.012720562E0,5.544809594E0
6.266971958E0,-3.576741815E0,-1.192946014E0,1.582607681E0,4.089113507E0
6.276929958E0,-2.702192481E0,-5.375935918E-1,6.991211700E-1,2.842467499E0
6.286888958E0,-1.944765215E0,-4.973267412E-1,5.649905746E-1,2.085344091E0
6.296847208E0,-1.073603173E0,-8.165893936E-1,1.011322798E0,1.685887248E0
6.306806208E0,-1.495285070E-1,-1.089654949E0,1.801057173E0,2.110334955E0
6.316764208E0,5.987928897E-1,-8.469352734E-1,2.606089983E0,2.804916626E0
6.326723208E0,1.046868533E0,-3.730967975E-1,2.422251184E0,2.665039539E0
6.336681208E0,1.207579840E0,-1.997783089E-1,1.740783927E0,2.128024700E0
6.346640208E0,1.373077678E0,-6.027520394E-1,1.502568946E0,2.122820240E0
6.356598208E0,1.331476493E0,-1.672762683E0,1.420814347E0,2.567036823E0
6.366557208E0,8.075203621E-1,-2.980063278E0,9.519324823E-1,3.230950592E0
6.376516208E0,-4.981886208E-2,-4.361624681E0,-7.848279029E-3,4.361916250E0
6.386474208E0,-9.316848171E-1,-6.038630104E0,-1.043815848E0,6.198599976E0
6.396433208E0,-1.630197877E0,-7.841318504E0,-1.746980807E0,8.197302174E0
6.406391208E0,-1.857615974E0,-9.535556256E0,-1.771720376E0,9.875047509E0
6.416350208E0,-1.803502332E0,-1.128976890E1,-8.480731416E-1,1.146432425E1
6.426308208E0,-1.798484836E0,-1.184662965E1,9.589769885E-1,1.202068295E1
6.436267208E0,-1.711940197E0,-9.303004303E0,2.377014639E0,9.753298257E0
6.446225208E0,-8.865571761E-1,-5.490982810E0,2.288135645E0,6.014352881E0
6.456184208E0,3.282118160E-1,-2.927958155E0,1.492444785E0,3.302734229E0
6.466142208E0,1.367070249E0,-1.588721822E0,6.921746778E-1,2.207266155E0
6.476101208E0,2.300087062E0,-3.373094988E-1,2.476997495E-1,2.337848018E0
6.486059208E0,3.171896975E0,1.029321039E0,-7.485985547E-2,3.335571348E0
6.496018208E0,3.640463017E0,2.360813320E0,-1.972797936E-1,4.343423744E0
6.505976208E0,3.540161049E0,3.935743314E0,3.242547128E-1,5.303579622E0
6.515935208E0,2.822822294E0,5.388295178E0,8.490236065E-1,6.141896426E0
6.525894208E0,1.752552034E0,4.953761101E0,-3.139563042E-1,5.264005721E0
6.535852208E0,9.554432237E-1,3.572114913E0,-1.113826754E0,3.861798382E0
6.545811208E0,9.153500354E-1,2.210171503E0,-1.701838840E0,2.935809802E0
6.555769208E0,1.207657608E0,1.100009784E0,-2.176619887E0,2.721421054E0
6.565728208E0,1.613853155E0,2.715821171E-1,-2.466377782E0,2.959949022E0
6.575686208E0,2.178924567E0,-3.914517921E-1,-2.731289395E0,3.515805531E0
6.585645208E0,2.833233261E0,-9.375770563E-1,-3.061279349E0,4.275241830E0
6.595603208E0,3.505977641E0,-1.233732097E0,-3.504957302E0,5.108688658E0
6.605562208E0,4.245280877E0,-1.196958373E0,-4.029189422E0,5.974067833E0
6.615520208E0,5.020242189E0,-8.562329310E-1,-4.384371227E0,6.720020649E0
6.625479208E0,5.829117351E0,-2.145232326E-1,-4.358293815E0,7.281439025E0
6.635437208E0,6.463556621E0,6.795967323E-1,-3.912601789E0,7.586031154E0
6.645396208E0,6.717934476E0,1.671764563E0,-3.265333142E0,7.654269456E0
6.655354208E0,6.212867775E0,2.378629201E0,-2.741760589E0,7.195474549E0
6.665313208E0,5.231382222E0,2.542276980E0,-2.377532848E0,6.283565440E0
6.675271208E0,4.236790136E0,2.529141794E0,-2.051168752E0,5.343616951E0
6.685230208E0,3.390243117E0,2.752562735E0,-1.671867182E0,4.676054948E0
6.695188208E0,2.626165813E0,3.074616264E0,-1.271251633E0,4.238642797E0
6.705147208E0,1.844372615E0,3.265132583E0,-7.924848318E-1,3.832862290E0
6.715106208E0,1.061510546E0,3.356453812E0,-1.014331117E-1,3.521771643E0
6.725064208E0,2.492054075E-1,3.322955698E0,1.009411855E0,3.481817083E0
6.735023208E0,-8.708357674E-1,3.149331985E0,2.857424946E0,4.340682459E0
6.744981208E0,-2.393655376E0,2.646195450E0,5.873660270E0,6.872541116E0
6.754940208E0,-4.707019125E0,1.507802789E0,9.996408066E0,1.115157713E1
6.764898208E0,-7.900987000E0,-3.727102965E-1,1.216033979E1,1.450649414E1
6.774857208E0,-1.002460451E1,-2.392992886E0,9.188150370E0,1.380728857E1
6.784815208E0,-1.040936299E1,-3.975448832E0,4.714363228E0,1.209893599E1
6.794774208E0,-9.465120111E0,-4.315324674E0,2.337833762E0,1.066189441E1
6.804732208E0,-8.231660494E0,-3.026002513E0,2.175312157E0,9.035978568E0
6.814691208E0,-6.692891436E0,-7.853354412E-1,2.786826834E0,7.292321395E0
6.824649208E0,-4.387607369E0,1.105222576E0,2.645302581E0,5.241206074E0
6.834608208E0,-1.823934842E0,1.943563612E0,1.782809328E0,3.206647303E0
6.844566208E0,6.644822645E-1,2.039978936E0,1.289763626E0,2.503306004E0
6.854525208E0,2.791645525E0,1.447189382E0,1.321782833E0,3.410975183E0
6.864483208E0,3.744124795E0,-1.899386144E-1,1.366925822E0,3.990367572E0
6.874442208E0,2.876086920E0,-2.833495801E0,1.054691523E0,4.172882533E0
6.884401208E0,8.382445568E-1,-5.876561074E0,8.566707413E-1,5.997541892E0
6.894359208E0,-1.101865105E0,-1.006132970E1,3.697541782E0,1.077572630E1
6.904318208E0,-2.302358705E0,-1.501183507E1,8.563687034E0,1.743538882E1
6.914276208E0,-2.260077488E0,-1.596467628E1,4.310682569E0,1.669014150E1
6.924235208E0,-1.473389001E0,-1.441822106E1,-3.819929852E0,1.498825666E1
6.934193208E0,-3.738768160E-1,-1.148039748E1,-9.143725564E0,1.468151993E1
6.944152208E0,5.816143548E-1,-7.360560433E0,-1.017770566E1,1.257385453E1
6.954110208E0,1.927093175E0,-3.700140869E0,-7.863654867E0,8.901786249E0
6.964069208E0,3.281839832E0,-8.980440313E-1,-5.653491551E0,6.598403025E0
6.974027208E0,4.600615003E0,1.576382443E0,-4.169496285E0,6.405883177E0
6.983986208E0,5.739384810E0,3.602981780E0,-2.882893664E0,7.364312023E0
6.993944208E0,6.451304950E0,4.955595957E0,-2.013413719E0,8.380399851E0
7.003903208E0,6.844799759E0,5.909638773E0,-1.788341087E0,9.218095140E0
7.013861208E0,7.068475639E0,6.547218583E0,-2.126876893E0,9.866763620E0
7.023820208E0,7.156337070E0,6.817869238E0,-2.922301558E0,1.030710180E1
7.033778208E0,7.029002255E0,6.463048498E0,-3.984821334E0,1.034681930E1
7.043737208E0,6.420450363E0,5.118495292E0,-4.888167036E0,9.555906753E0
7.053695208E0,5.626323048E0,3.407621627E0,-5.497311251E0,8.572504137E0
7.063654208E0,4.769692506E0,1.514751620E0,-5.721266627E0,7.601140105E0
7.073613208E0,3.951845376E0,-4.880559808E-1,-5.637621038E0,6.902032417E0
7.083571208E0,3.075236068E0,-2.349317694E0,-4.974754944E0,6.302742042E0
7.093530208E0,2.067726313E0,-3.790351127E0,-4.210921469E0,6.031095538E0
7.103488208E0,1.245140015E0,-4.693056559E0,-3.576648259E0,6.030552735E0
7.113447208E0,4.775181288E-1,-5.217274645E0,-2.743681984E0,5.914031545E0
7.123405208E0,-3.462446290E-1,-5.306527129E0,-1.731002705E0,5.592449006E0
7.133364208E0,-1.577267126E0,-5.145810560E0,3.934404302E-1,5.396474153E0
7.143322208E0,-4.520784137E0,-4.482393073E0,7.136108043E0,9.563125790E0
7.153281208E0,-3.832973821E0,-2.252865533E0,6.516242373E0,7.888504680E0
7.163239208E0,-7.101928729E-1,-9.011681986E-1,2.179546126E0,2.463107662E0
7.173198208E0,3.476391900E-1,-5.907950681E-1,3.334548680E-1,7.622886382E-1
7.183156208E0,2.997680354E-1,-5.398909628E-2,-8.813975930E-2,3.170872352E-1
7.193115208E0,1.929762429E-1,6.315203404E-1,8.029615805E-3,6.603955220E-1
7.203073208E0,3.200181127E-2,1.304330794E0,1.800299227E-1,1.317085308E0
7.213032208E0,-1.834639925E-1,1.865378153E0,3.968060875E-1,1.915920082E0
7.222990208E0,-5.668916506E-1,2.347951784E0,8.583829522E-1,2.563408866E0
7.232949208E0,-1.415841290E0,2.910814703E0,2.088199900E0,3.852016046E0
7.242907208E0,-2.442116514E0,3.417596392E0,3.408605129E0,5.409481222E0
7.252866208E0,-2.263727905E0,3.607663060E0,3.406054573E0,5.453522214E0
7.262825208E0,-1.780518097E0,3.480567981E0,3.063744535E0,4.967004001E0
7.272783208E0,-1.974846801E0,3.067808935E0,2.684815725E0,4.529868323E0
7.282742208E0,-2.627865599E0,2.629247881E0,2.190900396E0,4.314935291E0
7.292700208E0,-3.381531935E0,2.236093964E0,1.802555229E0,4.436674408E0
7.302663542E0,-4.030772848E0,1.896992294E0,1.543075533E0,4.714529840E0
7.312621542E0,-4.180374445E0,1.827374175E0,1.455484242E0,4.788868473E0
7.322580542E0,-3.419504339E0,2.083845332E0,1.511913382E0,4.280339165E0
7.332538542E0,-2.300127407E0,2.280718744E0,1.622553373E0,3.622836393E0
7.342497542E0,-1.675257690E0,2.136443961E0,1.550654840E0,3.126565457E0
7.352455542E0,-1.850511022E0,1.842472270E0,1.041777363E0,2.811475624E0
7.362414542E0,-2.414518241E0,1.525108209E0,4.255382819E-1,2.887375316E0
7.372372542E0,-2.614040442E0,1.427056834E0,3.219805844E-1,2.995558402E0
7.382331542E0,-2.449721988E0,1.463592576E0,5.552014585E-1,2.907144597E0
7.392289542E0,-2.376988472E0,1.347000850E0,9.074831915E-1,2.878890625E0
7.402248542E0,-2.663978003E0,1.322689297E0,8.878574507E-1,3.103961441E0
7.412206542E0,-2.953049142E0,1.396288201E0,7.222305357E-1,3.345405345E0
7.422165542E0,-3.301457825E0,1.209219400E0,7.931711487E-1,3.604296852E0
7.432123542E0,-3.693351667E0,8.212823689E-1,9.448093311E-1,3.899745625E0
7.442082542E0,-4.006717402E0,3.626010454E-1,1.221445781E0,4.204425485E0
7.452041542E0,-3.977463198E0,-4.101506031E-1,2.129551263E0,4.530278754E0
7.461999542E0,-3.569357951E0,-1.711373017E0,3.679567441E0,5.404473178E0
7.471958542E0,-3.474554120E0,-2.558492478E0,4.014561442E0,5.893650283E0
7.481916542E0,-3.447448767E0,-2.223866851E0,2.927116156E0,5.039692030E0
7.491875542E0,-3.033122082E0,-9.882098508E-1,1.475056189E0,3.514566692E0
7.501833542E0,-2.443581242E0,-1.929581165E-4,5.474607682E-1,2.504157067E0
7.511792542E0,-1.820364532E0,5.358873743E-1,4.067346597E-1,1.940704870E0
7.521750542E0,-1.143828818E0,7.852097261E-1,7.354896820E-1,1.570300529E0
7.531709542E0,-7.520659536E-1,9.634609258E-1,1.353553240E0,1.823723260E0
7.541667542E0,-6.943352240E-1,1.158534565E0,1.965619894E0,2.384945557E0
7.551626542E0,-5.319194537E-1,1.079304793E0,1.699266357E0,2.082148721E0
7.561584542E0,-2.487025470E-1,6.955789268E-1,1.088020653E0,1.315093890E0
7.571543542E0,-6.253655612E-2,1.745990288E-1,6.927278244E-1,7.171244526E-1
7.581501542E0,-1.671005595E-1,-7.892390424E-1,4.994755930E-1,9.488396761E-1
7.591460542E0,-2.826345241E-1,-2.165641447E0,4.241745651E-1,2.224816670E0
7.601418542E0,-6.337843823E-1,-3.507672164E0,-2.404725909E-2,3.564551154E0
7.611377542E0,-1.664822164E0,-4.795996791E0,-1.157730134E0,5.207067996E0
7.621335542E0,-2.577485404E0,-6.075485689E0,-2.495747176E0,7.055757318E0
7.631294542E0,-2.814335060E0,-7.636100530E0,-3.020928299E0,8.680813379E0
7.641252542E0,-2.555056069E0,-9.374387696E0,-2.409764016E0,1.001071520E1
7.651211542E0,-1.899544019E0,-1.018058366E1,-8.398291522E-1,1.039027739E1
7.661170542E0,-8.273810148E-1,-8.399551013E0,1.090786386E0,8.510395496E0
7.671128542E0,1.900105351E-1,-5.175123237E0,2.313043761E0,5.671699565E0
7.681087542E0,1.024645021E0,-2.745593439E0,2.107333451E0,3.609575463E0
7.691045542E0,1.660855998E0,-1.540250158E0,1.148953317E0,2.539863563E0
7.701004542E0,2.103836963E0,-7.146642387E-1,4.004056334E-2,2.222268702E0
7.710962542E0,2.609590711E0,1.325078470E-1,-8.084753586E-1,2.735169906E0
7.720921542E0,3.142796552E0,9.310954177E-1,-1.090244056E0,3.454379966E0
7.730879542E0,3.300444503E0,1.735731933E0,-9.931411001E-1,3.859019112E0
7.740838542E0,2.909956332E0,2.470003055E0,-7.055683100E-1,3.881570248E0
7.750796542E0,1.883154273E0,3.109470931E0,-2.597917914E-2,3.635347907E0
7.760755542E0,5.146087718E-1,2.863041782E0,-3.981220034E-1,2.936040116E0
7.770713542E0,-2.923701382E-1,1.816656228E0,-1.076037369E0,2.131566693E0
7.780672542E0,5.365989804E-3,7.969971281E-1,-1.718220399E0,1.894073535E0
7.790630542E0,6.959724444E-1,3.364721775E-2,-2.138972881E0,2.249603246E0
7.800589542E0,1.417553939E0,-5.989776617E-1,-2.257870457E0,2.732437083E0
7.810547542E0,2.308456181E0,-1.041229479E0,-2.414261256E0,3.498826401E0
7.820506542E0,3.213150251E0,-1.281457071E0,-2.648229989E0,4.356556993E0
7.830464542E0,4.073887292E0,-1.270887060E0,-3.095691675E0,5.272098115E0
7.840423542E0,4.908256899E0,-9.398247260E-1,-3.799891444E0,6.278011731E0
7.850381542E0,5.590720521E0,-4.420074034E-1,-4.500916760E0,7.190951131E0
7.860340542E0,6.160981922E0,9.110371292E-2,-4.819076920E0,7.822371795E0
7.870299542E0,6.573321138E0,5.250314337E-1,-4.546265134E0,8.009540277E0
7.880257542E0,6.585038373E0,7.579640400E-1,-3.954490072E0,7.718499310E0
7.890216542E0,6.023265960E0,6.466453332E-1,-3.270231940E0,6.884206559E0
7.900174542E0,5.298138714E0,3.385906237E-1,-2.720647755E0,5.965470782E0
7.910133542E0,4.850612124E0,1.562925661E-1,-2.159369139E0,5.311849058E0
7.920091542E0,4.642496270E0,2.337933165E-1,-1.618485027E0,4.922085403E0
7.930050542E0,4.514267415E0,5.118424541E-1,-1.157337348E0,4.688285692E0
7.940008542E0,4.206709719E0,7.541446388E-1,-7.190949664E-1,4.333847986E0
7.949967542E0,3.599175827E0,8.641003597E-1,-2.064213306E-2,3.701508093E0
7.959925542E0,2.659307832E0,1.038502337E0,1.072217090E0,3.049599111E0
7.969884542E0,1.320873152E0,1.496493689E0,2.554143319E0,3.241580994E0
7.979842542E0,-5.343290913E-1,1.878695186E0,4.276037232E0,4.701010273E0
7.989801542E0,-3.412625089E0,1.610706768E0,6.642841609E0,7.639877678E0
7.999759542E0,-6.783989301E0,8.152632451E-1,8.454442334E0,1.087036155E1
8.009718542E0,-9.083578765E0,-4.844593585E-2,5.987680390E0,1.087961703E1
8.019676542E0,-1.030385583E1,-6.590794373E-1,1.808374524E0,1.048208229E1
8.029635542E0,-1.054989965E1,-4.192471164E-1,-2.294897658E-1,1.056072045E1
8.039593542E0,-1.030220575E1,1.028539267E0,-3.953621176E-1,1.036096750E1
8.049552542E0,-9.611904520E0,3.219092191E0,6.271548092E-2,1.013682378E1
8.059510542E0,-8.220033891E0,5.170063641E0,5.668805408E-1,9.727274478E0
8.069469542E0,-6.268257864E0,5.500683925E0,9.054132771E-1,8.388584714E0
8.079427542E0,-4.024311674E0,4.092148147E0,1.273866070E0,5.879072688E0
8.089386542E0,-1.988343928E0,2.363339317E0,1.639541143E0,3.496709805E0
8.099345542E0,-4.298855406E-1,9.263603425E-1,1.716212758E0,1.997080692E0
8.109303542E0,3.349214959E-1,-9.300668925E-1,1.619509020E0,1.897368256E0
8.119262542E0,2.068668884E-1,-3.476045744E0,1.667601346E0,3.860904321E0
8.129220542E0,-3.832200819E-1,-6.173523030E0,2.220346828E0,6.571847858E0
8.139179542E0,-1.113112224E0,-9.455712526E0,5.751357569E0,1.112329232E1
8.149137542E0,-1.716964125E0,-1.277657317E1,1.010050371E1,1.637708652E1
8.159096542E0,-1.313824918E0,-1.275866198E1,6.187135933E0,1.424044390E1
8.169054542E0,-5.447558463E-2,-1.024885692E1,-2.100646868E0,1.046206256E1
8.179013542E0,8.079296672E-1,-7.712575679E0,-7.577427814E0,1.084223161E1
8.188971542E0,1.556803626E0,-5.298945630E0,-8.424908048E0,1.007380454E1
8.198930542E0,3.737626199E0,-1.763881599E0,-4.531396834E0,6.133081213E0
8.208888542E0,5.954400378E0,1.158498312E0,-5.231049223E-1,6.088566412E0
8.218847542E0,6.767301933E0,2.347280524E0,-3.313105479E-3,7.162828511E0
8.228805542E0,6.933066988E0,2.884547256E0,-1.822927952E-2,7.509218537E0
8.238764542E0,6.660251693E0,2.981247924E0,-1.211851524E-1,7.298046152E0
8.248722542E0,6.095223550E0,2.743027681E0,-6.056014607E-1,6.711386154E0
8.258681542E0,5.414281958E0,2.299366100E0,-9.709710896E-1,5.961905605E0
8.268639542E0,4.658041677E0,1.415284635E0,-1.360178867E0,5.054747216E0
8.278598542E0,3.761944184E0,1.007410938E-1,-2.181378205E0,4.349802718E0
8.288556542E0,2.967542050E0,-1.181003661E0,-3.149642472E0,4.485679789E0
8.298511458E0,2.349548074E0,-2.477440714E0,-4.144341563E0,5.369697909E0
8.308469458E0,1.889403192E0,-3.651917712E0,-5.014568635E0,6.484770312E0
8.318428458E0,1.645114709E0,-4.273295472E0,-5.292030712E0,6.998074425E0
8.328386458E0,1.605175887E0,-4.038998126E0,-4.773485010E0,6.455714881E0
8.338345458E0,1.680347106E0,-2.961711792E0,-3.639133945E0,4.983833765E0
8.348303458E0,1.645075532E0,-1.785955423E0,-2.624286518E0,3.575302785E0
8.358262458E0,1.567613373E0,-8.731313843E-1,-1.878211622E0,2.597585224E0
8.368220458E0,1.562558455E0,-1.452138466E-1,-1.414293532E0,2.112558208E0
8.378179458E0,1.552369682E0,4.969759083E-1,-1.094757814E0,1.963499772E0
8.388138458E0,1.486406658E0,9.395890832E-1,-8.830073315E-1,1.967723137E0
8.398096458E0,1.321202350E0,1.061646202E0,-7.435494109E-1,1.850819828E0
8.408055458E0,1.110589736E0,1.007092264E0,-5.556047702E-1,1.598856169E0
8.418013458E0,7.742976522E-1,8.770285535E-1,-3.128383166E-1,1.211025908E0
8.427972458E0,3.018630928E-1,7.361223507E-1,-2.344265699E-2,7.959566572E-1
8.437930458E0,-2.676931340E-1,6.003125811E-1,2.044584020E-1,6.883589522E-1
8.447889458E0,-8.350929075E-1,4.614903259E-1,3.496120405E-1,1.016160452E0
8.457847458E0,-1.337019069E0,3.889035755E-1,4.257006884E-1,1.456051873E0
8.467806458E0,-1.830508282E0,4.650881177E-1,6.053844925E-1,1.983319922E0
8.477764458E0,-2.296718481E0,6.688279152E-1,1.003059440E0,2.593911101E0
8.487723458E0,-2.744988837E0,1.073428341E0,1.794146787E0,3.450532540E0
8.497681458E0,-3.312775696E0,2.163121297E0,3.948907735E0,5.589941758E0
8.507640458E0,-3.366153758E0,3.415149332E0,5.626613070E0,7.392767460E0
8.517598458E0,-2.897997022E0,3.545993062E0,4.018972582E0,6.092995498E0
8.527557458E0,-2.475143927E0,2.897746761E0,2.095831540E0,4.349227931E0
8.537515458E0,-1.959214854E0,2.404167500E0,1.331492865E0,3.375117400E0
8.547474458E0,-1.375631742E0,2.330829967E0,1.305837768E0,3.005052962E0
8.557432458E0,-7.163195854E-1,2.344574432E0,1.464925011E0,2.855897110E0
8.567391458E0,-2.949452519E-1,2.269754630E0,1.414890679E0,2.690853845E0
8.577349458E0,-1.552283728E-1,2.017715662E0,1.395798204E0,2.458358185E0
8.587308458E0,-1.777834225E-1,1.680845289E0,1.455196413E0,2.230346258E0
8.597266458E0,-5.263827252E-1,1.327177620E0,1.276373502E0,1.915100134E0
8.607225458E0,-1.302928632E0,1.097530564E0,4.331735761E-1,1.757792851E0
8.617183458E0,-1.905337440E0,1.219675391E0,-3.567922752E-1,2.290244429E0
8.627142458E0,-2.091463670E0,1.417696611E0,-3.380097029E-1,2.549183109E0
8.637100458E0,-2.159462695E0,1.618022220E0,-7.708515957E-2,2.699484609E0
8.647059458E0,-2.361409736E0,2.033812462E0,3.946892492E-1,3.141405525E0
8.657017458E0,-2.510090396E0,2.587060804E0,7.050572634E-1,3.672947474E0
8.666976458E0,-2.387127544E0,2.733524786E0,7.214503710E-1,3.700138687E0
8.676935458E0,-2.812175099E0,2.500758240E0,9.590006697E-1,3.883529689E0
8.686893458E0,-3.633897471E0,2.051088061E0,1.236686257E0,4.352190938E0
8.696852458E0,-4.427565486E0,1.423635628E0,1.529451520E0,4.895844819E0
8.706810458E0,-5.533854010E0,4.599384749E-1,2.021089067E0,5.909304919E0
8.716769458E0,-6.557112072E0,-6.889967161E-1,2.769738346E0,7.151355515E0
8.726727458E0,-6.544620665E0,-1.524955596E0,3.593709265E0,7.620518060E0
8.736686458E0,-5.318414519E0,-1.642861776E0,3.470875929E0,6.559840510E0
8.746644458E0,-3.902500139E0,-1.142278721E0,1.796924361E0,4.445587157E0
8.756603458E0,-2.944545536E0,-5.344173843E-1,5.988273883E-1,3.051973885E0
8.766561458E0,-2.136886010E0,-2.945932496E-1,1.227036743E-1,2.160583994E0
8.776520458E0,-1.319676812E0,-3.689253938E-1,2.687731147E-2,1.370538297E0
8.786478458E0,-6.780904895E-1,-6.358700842E-1,2.512337335E-1,9.629412572E-1
8.796437458E0,-2.553876686E-1,-8.859648532E-1,7.263364506E-1,1.173763699E0
8.806395458E0,2.517928004E-2,-1.110366957E0,1.046841052E0,1.526245381E0
8.816354458E0,2.113633972E-1,-1.437602288E0,1.185311304E0,1.875190047E0
8.826312458E0,4.424167085E-1,-2.111887994E0,1.414056720E0,2.579798412E0
8.836271458E0,6.233739996E-1,-2.934760221E0,1.464053337E0,3.338392558E0
8.846229458E0,3.717993003E-1,-3.703293688E0,8.453863460E-1,3.816712844E0
8.856188458E0,-2.114680624E-1,-4.431992413E0,-4.663207839E-1,4.461471794E0
8.866146458E0,-5.354833317E-1,-5.347195684E0,-1.838780338E0,5.679820174E0
8.876105458E0,-4.212252295E-1,-6.658634353E0,-2.454219666E0,7.109010924E0
8.886063458E0,-4.514635205E-2,-8.067297016E0,-1.698903830E0,8.244367384E0
8.896022458E0,4.792103130E-1,-8.966143286E0,2.050441651E-1,8.981281148E0
8.905980458E0,7.680148190E-1,-8.023030670E0,2.477949421E0,8.432028299E0
8.915939458E0,4.457145381E-1,-5.636148709E0,3.419460484E0,6.607385544E0
8.925897458E0,2.933571482E-1,-3.387679113E0,2.644900877E0,4.307891461E0
8.935856458E0,5.863599551E-1,-1.998785886E0,1.114906150E0,2.362621159E0
8.945814458E0,1.037784299E0,-1.285957088E0,-2.397621542E-1,1.669780757E0
8.955773458E0,1.456127436E0,-5.295419759E-1,-1.135508961E0,1.920963928E0
8.965731458E0,1.942868963E0,3.577882022E-1,-1.611396886E0,2.549382695E0
8.975690458E0,2.169438044E0,1.230322001E0,-1.474696147E0,2.897392341E0
8.985648458E0,1.631972507E0,2.205837547E0,-5.038542804E-1,2.789789003E0
8.995607458E0,6.371447772E-1,2.772280716E0,1.602435297E-1,2.849065079E0
9.005565458E0,2.927502072E-1,2.306910762E0,-4.925317320E-1,2.376999675E0
9.015524458E0,8.008317322E-1,1.601114411E0,-1.097925543E0,2.100080789E0
9.025482458E0,1.417698365E0,9.508192456E-1,-1.537796667E0,2.297551845E0
9.035441458E0,1.916238989E0,4.871490777E-1,-1.899894267E0,2.742058408E0
9.045399458E0,2.401912229E0,2.025797099E-1,-2.135518639E0,3.220351029E0
9.055358458E0,2.965784962E0,-2.785788953E-2,-2.319363870E0,3.765116899E0
9.065316458E0,3.603192279E0,-2.252844483E-1,-2.546754193E0,4.418110977E0
9.075275458E0,4.235830607E0,-3.215114915E-1,-2.885741258E0,5.135477892E0
9.085233458E0,4.817757788E0,-2.928273904E-1,-3.335641817E0,5.867115503E0
9.095192458E0,5.380044172E0,-1.224009347E-1,-3.760639086E0,6.565231421E0
9.105151458E0,5.895291460E0,1.416680950E-1,-3.918356326E0,7.080116351E0
9.115109458E0,6.266111936E0,5.593616062E-1,-3.792044189E0,7.345518588E0
9.125068458E0,6.392004828E0,1.073410800E0,-3.520066800E0,7.375690255E0
9.135026458E0,6.145058784E0,1.581513959E0,-3.276332340E0,7.141238511E0
9.144985458E0,5.452678285E0,1.825794842E0,-3.151823776E0,6.557379080E0
9.154943458E0,4.713717695E0,1.893821933E0,-3.020892338E0,5.910286503E0
9.164902458E0,4.159729096E0,2.050875222E0,-2.689548169E0,5.361259617E0
9.174860458E0,3.663215702E0,2.276776552E0,-2.178720792E0,4.832151181E0
9.184819458E0,2.985508790E0,2.417320812E0,-1.684824904E0,4.194679678E0
9.194777458E0,1.967153034E0,2.388122740E0,-1.010299170E0,3.254769684E0
9.204736458E0,6.653950149E-1,2.281634418E0,2.785239315E-1,2.392944154E0
9.214694458E0,-7.913855553E-1,2.201259177E0,2.540229285E0,3.453201106E0
9.224653458E0,-2.587258440E0,2.019746400E0,5.702235695E0,6.579420466E0
9.234611458E0,-5.493581312E0,1.422334623E0,1.182630941E1,1.311731930E1
9.244570458E0,-9.236070056E0,3.222985268E-1,1.632819534E1,1.876216484E1
9.254528458E0,-1.133610574E1,-1.649450419E0,9.810304055E0,1.508211012E1
9.264487458E0,-1.158761671E1,-3.244681946E0,2.570594460E0,1.230482742E1
9.274445458E0,-1.026872108E1,-3.357301074E0,-1.236691519E0,1.087416705E1
9.284404458E0,-8.910097724E0,-1.810704932E0,-2.776173500E0,9.506609969E0
9.294362458E0,-7.364548234E0,4.038549060E-1,-2.620329707E0,7.827247105E0
9.304321792E0,-4.851807294E0,2.036265954E0,-1.590745689E0,5.496988713E0
9.314279792E0,-1.807891837E0,2.504750134E0,-5.631940176E-1,3.139973508E0
9.324238792E0,4.774830455E-1,2.521008902E0,5.145115618E-1,2.616906206E0
9.334196792E0,1.981028477E0,1.947460781E0,1.575694225E0,3.193726603E0
9.344155792E0,2.344452226E0,-4.097202480E-2,2.656233950E0,3.543122033E0
9.354113792E0,1.269131725E0,-3.857166091E0,4.312802185E0,5.923570568E0
9.364072792E0,-2.558618778E-1,-8.528948141E0,8.506735738E0,1.204877482E1
9.374030792E0,-1.747533368E0,-1.224281476E1,1.218895021E1,1.736406904E1
9.383989792E0,-2.688467311E0,-1.291000429E1,8.996198559E0,1.596332220E1
9.393947792E0,-2.265538203E0,-1.074285660E1,-8.734702304E-2,1.097949274E1
9.403906792E0,-1.344155011E0,-8.223560931E0,-7.753493909E0,1.138201981E1
9.413864792E0,-7.611384934E-1,-6.386119021E0,-1.073250586E1,1.251193550E1
9.423823792E0,6.311104506E-1,-4.151098021E0,-9.618573269E0,1.049508775E1
9.433781792E0,2.886059931E0,-1.171350492E0,-5.773285797E0,6.559895791E0
9.443740792E0,4.257834849E0,7.637200391E-1,-3.643711730E0,5.655887293E0
9.453698792E0,4.873287041E0,1.995997349E0,-2.862092194E0,5.993705342E0
9.463657792E0,5.396566649E0,3.053322458E0,-2.137667198E0,6.558607374E0
9.473615792E0,5.765512508E0,3.759825738E0,-1.626000745E0,7.072573965E0
9.483574792E0,5.841642671E0,4.065284868E0,-1.358698205E0,7.245508331E0
9.493532792E0,5.794959671E0,3.944657394E0,-1.320225281E0,7.133363466E0
9.503491792E0,5.419960774E0,3.445274187E0,-1.383084603E0,6.569536668E0
9.513449792E0,4.756205319E0,2.421037302E0,-1.861505103E0,5.652266085E0
9.523408792E0,3.940835069E0,1.070500056E0,-2.628509962E0,4.856461267E0
9.533366792E0,3.072129443E0,-4.335154921E-1,-3.373889040E0,4.583562179E0
9.543325792E0,2.192331648E0,-1.947694670E0,-3.921141062E0,4.896445631E0
9.553283792E0,1.323733610E0,-3.227276539E0,-4.163404655E0,5.431530434E0
9.563242792E0,6.146628177E-1,-3.944679614E0,-3.953726426E0,5.618741877E0
9.573200792E0,3.455914950E-1,-3.811806901E0,-3.257853969E0,5.026223016E0
9.583159792E0,6.231026888E-1,-2.843254219E0,-2.437168454E0,3.796332650E0
9.593117792E0,9.091935021E-1,-1.779844497E0,-1.781240813E0,2.677180997E0
9.603076792E0,9.355164975E-1,-9.616956514E-1,-1.177598315E0,1.785157538E0
9.613034792E0,6.627275151E-1,-2.318549645E-1,-2.613506957E-1,7.491786636E-1
9.622993792E0,5.342799747E-1,4.287266225E-1,2.758821229E-1,7.384934353E-1
9.632951792E0,8.092487991E-1,8.025958371E-1,1.986141282E-1,1.156931834E0
9.642910792E0,7.677575415E-1,9.295657861E-1,2.513180065E-1,1.231545750E0
9.652868792E0,2.497345805E-1,9.694285941E-1,7.167201197E-1,1.231197340E0
9.662827792E0,-7.273585439E-1,1.298884698E0,3.636402125E0,3.929322120E0
9.672785792E0,-2.080651583E0,2.190226066E0,8.511876025E0,9.032067022E0
9.682744792E0,-2.591843827E0,1.989813334E0,4.398646327E0,5.479516497E0
9.692702792E0,-2.625856495E0,1.401336687E0,8.057147419E-1,3.083511487E0
9.702661792E0,-2.172697867E0,1.182366647E0,-3.449330986E-1,2.497515916E0
9.712619792E0,-1.558394068E0,1.250367426E0,-6.878266152E-1,2.113082162E0
9.722578792E0,-1.219490034E0,1.451819208E0,-5.645603657E-1,1.978298097E0
9.732536792E0,-1.094061996E0,1.736417227E0,-3.243941689E-1,2.077822902E0
9.742495792E0,-1.122094717E0,2.022212171E0,-5.416158915E-2,2.313303287E0
9.752454792E0,-1.322377056E0,2.330479134E0,3.767980850E-1,2.705880794E0
9.762412792E0,-1.683836140E0,2.762391905E0,1.198473606E0,3.449993067E0
9.772371792E0,-1.934394593E0,3.229523624E0,2.317950890E0,4.420927687E0
9.782329792E0,-1.858355062E0,3.480013665E0,3.307057704E0,5.147874251E0
9.792288792E0,-1.741095584E0,3.292824411E0,3.665528276E0,5.225916568E0
9.802246792E0,-1.752430996E0,2.811244222E0,3.066309124E0,4.514018179E0
9.812205792E0,-1.708132491E0,2.309939035E0,1.812392439E0,3.396807516E0
9.822163792E0,-1.619876372E0,1.800804427E0,5.269803107E-1,2.478831235E0
9.832122792E0,-1.744062461E0,1.399490721E0,-4.685442607E-1,2.284701703E0
9.842080792E0,-1.910036847E0,1.221352957E0,-9.172853907E-1,2.445681151E0
9.852039792E0,-1.763590407E0,1.394918198E0,-6.938411343E-1,2.353181553E0
9.861997792E0,-1.435875020E0,1.748012255E0,-4.028512314E-2,2.262500124E0
9.871956792E0,-1.483894694E0,1.841748970E0,3.888187909E-1,2.396906920E0
9.881914792E0,-1.815728860E0,1.702641370E0,4.382358031E-1,2.527431413E0
9.891873792E0,-2.351548991E0,1.406854704E0,5.549557292E-1,2.795889604E0
9.901831792E0,-3.090356676E0,1.097056355E0,6.106622989E-1,3.335677663E0
9.911790792E0,-3.861417894E0,7.464900488E-1,7.496997316E-1,4.003728916E0
9.921748792E0,-4.641920612E0,2.571453416E-1,1.352179145E0,4.841687632E0
9.931707792E0,-5.331597651E0,-4.408666116E-1,2.667950309E0,5.978148186E0
9.941665792E0,-5.095415747E0,-7.485166937E-1,3.396454614E0,6.169233569E0
9.951624792E0,-4.087626495E0,-5.065127170E-1,2.606099631E0,4.874115384E0
9.961582792E0,-3.253003119E0,-3.530923033E-1,1.075705247E0,3.444393305E0
9.971541792E0,-2.644330773E0,-3.869617152E-1,-2.702509984E-3,2.672495446E0
9.981499792E0,-2.048271457E0,-3.996688843E-1,-3.808689165E-1,2.121370385E0
9.991458792E0,-1.384434140E0,-4.056517553E-1,-1.971295202E-1,1.456046456E0
1.000141679E1,-9.679919332E-1,-2.570845306E-1,2.428688164E-1,1.030575616E0
1.001137579E1,-9.955633092E-1,5.888204634E-2,5.951693702E-1,1.161395702E0
1.002133379E1,-1.219074882E0,-1.484572971E-1,5.886544025E-1,1.361872660E0
1.003129279E1,-1.265726892E0,-8.839054638E-1,4.391258590E-1,1.605049829E0
1.004125079E1,-8.767455482E-1,-1.701751424E0,7.118096280E-1,2.042379400E0
1.005120979E1,-2.360205209E-1,-2.689406959E0,1.322381734E0,3.006211723E0
1.006116779E1,1.328943479E-1,-3.463799921E0,1.503315636E0,3.778297063E0
1.007112679E1,-3.366113412E-1,-4.089083036E0,8.079729366E-1,4.181713469E0
1.008108479E1,-1.263885604E0,-4.855939522E0,-6.146669839E-1,5.055232038E0
1.009104379E1,-1.740862280E0,-5.895453427E0,-2.029207049E0,6.473380403E0
1.010100179E1,-1.614035003E0,-7.070642032E0,-2.462157846E0,7.659067110E0
1.011096079E1,-1.117421038E0,-8.093428223E0,-9.072703528E-1,8.220422719E0
1.012091879E1,-4.501145679E-1,-7.870047044E0,1.590737942E0,8.041808925E0
1.013087779E1,6.356508136E-2,-5.905004269E0,2.483129177E0,6.406172528E0
1.014083579E1,3.550633997E-1,-3.821545438E0,1.646352418E0,4.176213098E0
1.015079479E1,6.089594436E-1,-2.694905680E0,3.640268889E-1,2.786729949E0
1.016075279E1,9.969151855E-1,-2.182828753E0,-6.067094350E-1,2.475212635E0
1.017071179E1,1.614874663E0,-1.492284279E0,-1.157002594E0,2.484630264E0
1.018066979E1,2.283055292E0,-5.554328620E-1,-1.441316585E0,2.756490636E0
1.019062879E1,2.762743907E0,3.273008198E-1,-1.397917527E0,3.113527442E0
1.020058679E1,2.860904624E0,1.121079640E0,-8.475009915E-1,3.187452394E0
1.021054579E1,2.540594151E0,1.609785832E0,1.644646347E-2,3.007706693E0
1.022050379E1,2.205981388E0,1.405637898E0,-6.378113598E-2,2.616532021E0
1.023046279E1,2.220324023E0,7.943717283E-1,-1.179323171E0,2.636601667E0
1.024042079E1,2.455784381E0,1.913834614E-1,-2.158007323E0,3.274828264E0
1.025037979E1,2.807956333E0,-2.459344751E-1,-2.996484599E0,4.113881680E0
1.026033779E1,3.220435882E0,-5.621571600E-1,-3.512806020E0,4.798649193E0
1.027029679E1,3.675927549E0,-7.751378971E-1,-3.888870572E0,5.407087610E0
1.028025479E1,4.200833852E0,-8.642342609E-1,-4.137601478E0,5.959333176E0
1.029021379E1,4.817392337E0,-7.495300162E-1,-4.119465169E0,6.382715523E0
1.030017204E1,5.530088403E0,-4.798581845E-1,-3.759434559E0,6.704139753E0
1.031013104E1,6.129720953E0,-1.038354403E-1,-3.297299286E0,6.961066250E0
1.032008904E1,6.480967290E0,2.978220820E-1,-2.894843034E0,7.104347345E0
1.033004804E1,6.428627109E0,6.765064788E-1,-2.599637581E0,6.967282330E0
1.034000604E1,5.905321189E0,9.984582657E-1,-2.543786146E0,6.506964362E0
1.034996504E1,5.147928421E0,1.268793172E0,-2.585402826E0,5.898755031E0
1.035992304E1,4.383158222E0,1.556247556E0,-2.484876910E0,5.273385603E0
1.036988204E1,3.700661856E0,1.912185114E0,-2.191058709E0,4.706600509E0
1.037984004E1,3.046464844E0,2.311821839E0,-1.686058959E0,4.179505123E0
1.038979904E1,2.181782686E0,2.747393212E0,-1.058887778E0,3.664640293E0
1.039975704E1,9.288144189E-1,3.051291720E0,-2.654592052E-1,3.200554011E0
1.040971604E1,-5.629447800E-1,3.180484781E0,7.897559363E-1,3.325072135E0
1.041967404E1,-2.068461893E0,3.223019181E0,2.570389808E0,4.612297801E0
1.042963304E1,-3.387646369E0,3.226388347E0,5.290367764E0,7.062132877E0
1.043959104E1,-5.914676734E0,2.805160194E0,1.174619203E1,1.344713173E1
1.044955004E1,-1.001458706E1,1.788246946E0,1.719434691E1,1.997837197E1
1.045950804E1,-1.090830357E1,-6.383756161E-1,5.836115883E0,1.238785125E1
1.046946704E1,-9.209458208E0,-2.929877211E0,-2.979320097E0,1.011309296E1
1.047942504E1,-7.606240554E0,-3.119046332E0,-4.873429129E0,9.556864384E0
1.048938404E1,-7.594581206E0,-1.598520001E0,-3.944819070E0,8.706005248E0
1.049934204E1,-6.956087476E0,1.046274456E0,-1.713101747E0,7.239928232E0
1.050930104E1,-5.088930600E0,2.899536009E0,-6.033211197E-1,5.887997970E0
1.051925904E1,-2.778099280E0,3.303402609E0,7.213299184E-1,4.376142281E0
1.052921804E1,-5.019799554E-1,3.144508617E0,2.453894561E0,4.020138907E0
1.053917604E1,1.176622342E0,2.310851786E0,3.570228893E0,4.412596793E0
1.054913504E1,1.810576293E0,2.789858615E-1,5.017818518E0,5.341771457E0
1.055909404E1,6.138102937E-1,-3.718880610E0,7.136426716E0,8.070651916E0
1.056905204E1,-1.518819528E0,-8.225210431E0,1.026195469E1,1.323890529E1
1.057901004E1,-3.776708404E0,-1.189073637E1,1.142527461E1,1.691715218E1
1.058896904E1,-5.305049538E0,-1.281974316E1,6.267313539E0,1.522394772E1
1.059892804E1,-4.606171612E0,-1.129294511E1,-3.562716683E0,1.270591895E1
1.060888604E1,-3.382406094E0,-9.808010193E0,-1.074539312E1,1.493657284E1
1.061884504E1,-2.217303352E0,-8.643724306E0,-1.252459910E1,1.537842602E1
1.062880304E1,5.294302940E-2,-5.953551362E0,-1.120794881E1,1.269116596E1
1.063876204E1,2.507636905E0,-2.445371075E0,-8.104696977E0,8.829167324E0
1.064872004E1,4.106988965E0,1.260612917E-1,-5.322470148E0,6.723982323E0
1.065867904E1,5.319174072E0,2.133742547E0,-3.512703694E0,6.722020329E0
1.066863704E1,6.198859600E0,3.548161209E0,-2.240781238E0,7.485747048E0
1.067859604E1,6.746192315E0,4.359430221E0,-1.295457791E0,8.135966660E0
1.068855404E1,7.016013835E0,4.791748788E0,-9.946657616E-1,8.554219226E0
1.069851304E1,7.074697076E0,5.131481373E0,-1.062320824E0,8.804087990E0
1.070847104E1,6.964058985E0,5.233522303E0,-1.286922464E0,8.805909531E0
1.071843004E1,6.631758211E0,4.583634104E0,-1.813725019E0,8.263142079E0
1.072838804E1,5.927610190E0,3.273589411E0,-2.519777479E0,7.225110984E0
1.073834704E1,5.019470356E0,1.590800507E0,-3.379518739E0,6.256746424E0
1.074830504E1,3.928596262E0,-2.869737428E-1,-4.262084021E0,5.803583610E0
1.075826404E1,2.703291757E0,-2.240357754E0,-4.865723083E0,6.000187523E0
1.076822204E1,1.612084957E0,-3.801122868E0,-4.956523325E0,6.450928340E0
1.077818104E1,8.351051867E-1,-4.603477215E0,-4.261892232E0,6.328754107E0
1.078813904E1,4.487293625E-1,-4.709158037E0,-3.220194392E0,5.722515127E0
1.079809804E1,4.036110771E-1,-4.219061378E0,-2.159509472E0,4.756770120E0
1.080805604E1,1.091008580E-1,-3.465157644E0,-6.915479294E-1,3.535174541E0
1.081801504E1,-5.405797648E-1,-2.468521371E0,1.036248163E0,2.731233146E0
1.082797304E1,-2.719867444E-1,-1.361678531E0,1.038350894E0,1.733873638E0
1.083793204E1,7.999166429E-2,-5.331549704E-1,8.083647001E-1,9.716513661E-1
1.084789004E1,1.709959745E-2,5.718401492E-2,1.357297797E0,1.358609480E0
1.085784904E1,-7.783965504E-1,1.040046587E0,4.942157886E0,5.110041356E0
1.086780704E1,-2.023296829E0,2.444812081E0,8.182590076E0,8.776423903E0
1.087776604E1,-2.562422392E0,2.157274082E0,3.225613006E0,4.650206366E0
1.088772404E1,-2.672981545E0,1.589201878E0,-2.829233766E-2,3.109854242E0
1.089768304E1,-2.454025539E0,1.788715308E0,-7.124937522E-1,3.119197196E0
1.090764104E1,-2.037448846E0,2.150519378E0,-6.919899058E-1,3.042167225E0
1.091760004E1,-1.694043624E0,2.449703861E0,-3.913353960E-1,3.003993376E0
1.092755804E1,-1.600891047E0,2.703904545E0,-4.129533928E-2,3.142555845E0
1.093751704E1,-1.820590235E0,2.845117142E0,3.344245557E-1,3.394271666E0
1.094747504E1,-2.237620087E0,2.862377538E0,7.516736785E-1,3.710143143E0
1.095743404E1,-2.607875138E0,2.738725299E0,1.156272935E0,3.954566487E0
1.096739204E1,-2.800830331E0,2.628600594E0,1.593904355E0,4.158692429E0
1.097735104E1,-2.628214093E0,2.673514227E0,2.083841239E0,4.289240253E0
1.098730904E1,-2.134019120E0,2.828768327E0,2.481099901E0,4.325716654E0
1.099726804E1,-1.663796563E0,2.887981326E0,2.505019691E0,4.169385901E0
1.100722604E1,-1.451934398E0,2.731915632E0,1.756935253E0,3.557850193E0
1.101718504E1,-1.490906675E0,2.355291209E0,4.293296166E-1,2.820376449E0
1.102714304E1,-1.599138637E0,1.913783743E0,-6.339188683E-1,2.573259747E0
1.103710204E1,-1.707409775E0,1.602904828E0,-9.790881944E-1,2.538339166E0
1.104706004E1,-1.764537656E0,1.522985085E0,-7.016155922E-1,2.434202364E0
1.105701904E1,-1.550098624E0,1.600035599E0,1.404745321E-1,2.232185646E0
1.106697704E1,-1.347798411E0,1.521792837E0,1.081324421E0,2.302536970E0
1.107693604E1,-1.561854451E0,1.341049554E0,1.270709889E0,2.419195497E0
1.108689404E1,-2.225184814E0,1.234896863E0,6.005453002E-1,2.614779603E0
1.109685304E1,-3.116950105E0,1.257804499E0,-6.881580792E-2,3.361872355E0
1.110681104E1,-4.060960268E0,1.079452727E0,-2.609097060E-1,4.210070114E0
1.111677004E1,-5.007326859E0,5.760945833E-1,-1.368225074E-1,5.042214557E0
1.112672804E1,-6.225934548E0,-1.551131827E-1,3.020438448E-1,6.235186571E0
1.113668704E1,-7.309722986E0,-7.892378730E-1,1.007354950E0,7.420896883E0
1.114664504E1,-6.502431250E0,-6.617247176E-1,1.797597814E0,6.778705603E0
1.115660404E1,-4.746186699E0,-4.165112042E-1,2.530270307E0,5.394630441E0
1.116656204E1,-3.495922185E0,-4.514179122E-1,1.717612581E0,3.921153278E0
1.117652104E1,-2.672215560E0,-3.551002371E-1,5.521805676E-1,2.751678680E0
1.118647904E1,-2.025486612E0,-7.363515615E-2,1.131155197E-1,2.029978638E0
1.119643804E1,-1.452903281E0,2.421051335E-1,7.664062500E-2,1.474929363E0
1.120639604E1,-1.132384647E0,3.929995501E-1,2.344184021E-1,1.221349918E0
1.121635504E1,-9.136286151E-1,2.114809263E-1,5.551176971E-1,1.089769281E0
1.122631304E1,-6.520955229E-1,-3.438572109E-1,7.877439094E-1,1.078891477E0
1.123627204E1,-2.415747911E-1,-1.019129927E0,8.429837251E-1,1.344472294E0
1.124623004E1,3.395255935E-1,-1.704418339E0,8.375018873E-1,1.929178300E0
1.125618904E1,8.606914330E-1,-2.373562589E0,5.021009928E-1,2.574236685E0
1.126614704E1,1.061622228E0,-2.965848697E0,-4.368321790E-1,3.180270838E0
1.127610604E1,8.292217183E-1,-3.471278509E0,-1.938968870E0,4.061647871E0
1.128606404E1,4.468418813E-1,-3.997761807E0,-3.698838986E0,5.464721125E0
1.129602304E1,2.396668446E-1,-4.824673875E0,-5.059325563E0,6.995119252E0
1.130598054E1,4.555027771E-1,-6.065265926E0,-5.085440982E0,7.928218180E0
1.131593954E1,1.114494506E0,-7.721112614E0,-2.703465419E0,8.256294766E0
1.132589754E1,1.909947969E0,-8.727618402E0,1.419313074E0,9.046196650E0
1.133585654E1,1.921927160E0,-7.773383798E0,3.854614366E0,8.886920254E0
1.134581454E1,1.229126830E0,-5.820074047E0,3.028743395E0,6.675125559E0
1.135577354E1,9.316345310E-1,-4.003997278E0,9.781336364E-1,4.225716804E0
1.136573154E1,1.185656875E0,-2.877142927E0,-6.268434450E-1,3.174376530E0
1.137569054E1,1.557919275E0,-2.113649760E0,-1.600913559E0,3.075313317E0
1.138564854E1,2.025686586E0,-1.288474900E0,-2.190212032E0,3.249708058E0
1.139560754E1,2.576155162E0,-2.930057305E-1,-2.442841277E0,3.562288770E0
1.140556554E1,2.906791234E0,7.212604827E-1,-1.799231233E0,3.493835284E0
1.141552454E1,2.369260207E0,1.858003644E0,-6.467900518E-1,3.079595565E0
1.142548254E1,1.081498083E0,2.770057604E0,-1.058442512E-1,2.975577295E0
1.143544154E1,6.331949830E-2,2.788422539E0,-7.516598645E-1,2.888650579E0
1.144540054E1,-1.707369429E-1,2.547343592E0,-1.534866334E0,2.978913417E0
1.145535854E1,-6.659043074E-2,2.301245980E0,-1.951045709E0,3.017738674E0
1.146531754E1,1.199743402E-1,1.834290261E0,-2.007323406E0,2.721830608E0
1.147527554E1,5.234743202E-1,1.153248097E0,-1.924394100E0,2.303757624E0
1.148523454E1,1.371593655E0,4.017744666E-1,-1.888173231E0,2.368098398E0
1.149519254E1,2.417483364E0,-1.639793158E-1,-2.063901649E0,3.182892560E0
1.150515154E1,3.342875408E0,-4.138437045E-1,-2.575099155E0,4.239954984E0
1.151510954E1,4.169044295E0,-3.854753530E-1,-3.325447782E0,5.346786374E0
1.152506854E1,4.860886266E0,-8.048926234E-2,-4.058213246E0,6.332755211E0
1.153502654E1,5.515445806E0,4.563857067E-1,-4.469863075E0,7.113937465E0
1.154498554E1,6.073822741E0,1.148545182E0,-4.470969953E0,7.628895794E0
1.155494354E1,6.361689354E0,1.803269613E0,-4.160934792E0,7.812570068E0
1.156490254E1,6.145255251E0,2.209904285E0,-3.622783668E0,7.468092163E0
1.157486054E1,5.550789886E0,2.433559114E0,-3.073010033E0,6.795356428E0
1.158481954E1,4.929877564E0,2.705669235E0,-2.575430108E0,6.185238802E0
1.159477754E1,4.257975183E0,2.846875985E0,-2.033758960E0,5.511009983E0
1.160473654E1,3.386347117E0,2.690358886E0,-1.410744564E0,4.549239272E0
1.161469454E1,2.164834532E0,2.339106116E0,-4.543567228E-1,3.219373542E0
1.162465354E1,6.336428797E-1,1.993355577E0,1.407435333E0,2.521079922E0
1.163461154E1,-8.458453524E-1,1.904736931E0,4.110541733E0,4.608690755E0
1.164457054E1,-2.776663789E0,1.696334563E0,7.653051023E0,8.316044896E0
1.165452854E1,-6.840149469E0,8.917044801E-1,1.405721163E1,1.565847950E1
1.166448754E1,-1.068566264E1,-3.965353614E-1,1.399954756E1,1.761612779E1
1.167444554E1,-1.199391634E1,-2.675248511E0,5.260681450E0,1.336733904E1
1.168440454E1,-1.151954342E1,-4.395949007E0,-4.668153852E-2,1.232989974E1
1.169436254E1,-1.057043507E1,-3.280832357E0,-1.312067099E0,1.114537925E1
1.170432154E1,-9.377417139E0,-4.746629333E-1,-1.433796481E0,9.498264549E0
1.171427954E1,-7.385771288E0,2.524268725E0,-1.702765916E0,7.988802280E0
1.172423854E1,-4.579085555E0,3.891736584E0,-1.721949023E0,6.251299593E0
1.173419654E1,-1.753758314E0,4.017652865E0,-1.189927973E0,4.542370675E0
1.174415554E1,4.152686709E-1,3.469708532E0,-4.229881650E-1,3.519977891E0
1.175411354E1,1.810392691E0,1.853165073E0,4.832606792E-1,2.635390553E0
1.176407254E1,2.019552857E0,-1.339561438E0,1.922172597E0,3.093180577E0
1.177403054E1,8.372131079E-1,-5.985264321E0,5.145185493E0,7.937080605E0
1.178398954E1,-1.052747909E0,-1.115208802E1,1.055908680E1,1.539388383E1
1.179394754E1,-3.072677912E0,-1.450408508E1,1.195400792E1,1.904489798E1
1.180390654E1,-3.427660035E0,-1.375546957E1,4.023387229E0,1.473599136E1
1.181386454E1,-2.526183103E0,-1.114624548E1,-6.401560348E0,1.309963222E1
1.182382354E1,-1.720225702E0,-8.968599701E0,-1.103958759E1,1.432715782E1
1.183378154E1,-1.245141184E-1,-6.248146951E0,-1.048074697E1,1.220249569E1
1.184374054E1,2.676890409E0,-2.563787132E0,-6.647912314E0,7.611404920E0
1.185369854E1,4.259547499E0,-6.828553855E-2,-4.206737786E0,5.987073626E0
1.186365754E1,5.117352161E0,1.810406139E0,-2.868108394E0,6.139292247E0
1.187361554E1,6.020227747E0,3.465478656E0,-1.325420532E0,7.071734160E0
1.188357454E1,6.707390192E0,4.500810633E0,-2.075266005E-1,8.080188539E0
1.189353254E1,6.725510128E0,4.910077722E0,-3.333867480E-1,8.333816439E0
1.190349154E1,6.279937677E0,4.945805379E0,-1.094546291E0,8.068248860E0
1.191344954E1,5.828496376E0,4.944700255E0,-1.681749853E0,7.826219598E0
1.192340854E1,5.122588343E0,4.418601705E0,-2.044429398E0,7.067152462E0
1.193336754E1,4.114660512E0,3.224550567E0,-2.673789046E0,5.871737847E0
1.194332554E1,3.095752194E0,1.648398505E0,-3.417718599E0,4.897111363E0
1.195328354E1,2.114157883E0,-1.583952248E-1,-4.058248914E0,4.578661032E0
1.196324254E1,1.187826777E0,-1.922089713E0,-4.525431504E0,5.058151007E0
1.197320154E1,3.655006796E-1,-3.315394664E0,-4.638851116E0,5.713525374E0
1.198315954E1,-2.675001758E-1,-4.067845364E0,-4.305422414E0,5.929214485E0
1.199311854E1,-6.127595490E-1,-4.101548131E0,-3.542313409E0,5.454003632E0
1.200307654E1,-5.615654218E-1,-3.284742975E0,-2.560492226E0,4.202500752E0
1.201303554E1,-4.447567642E-1,-2.184084150E0,-1.676313843E0,2.788917398E0
1.202299354E1,-4.977641129E-1,-1.025637878E0,-4.300393224E-1,1.218456396E0
1.203295254E1,-1.783359843E-1,2.932437122E-2,1.909185712E-1,2.628945471E-1
1.204291054E1,2.884238523E-1,6.797487599E-1,1.401648124E-1,7.515935536E-1
1.205286954E1,4.062972879E-1,1.103371933E0,3.729283977E-1,1.233524502E0
1.206282754E1,1.926452905E-1,1.566901183E0,1.643811364E0,2.279124245E0
1.207278654E1,-6.142353863E-1,2.498166170E0,7.775515108E0,8.190039958E0
1.208274454E1,-2.001569746E0,2.829467654E0,7.209860144E0,7.999640738E0
1.209270354E1,-2.850054531E0,2.276044480E0,2.500468218E0,4.422163567E0
1.210266154E1,-2.668683257E0,1.885083854E0,4.853457963E-1,3.303176048E0
1.211262054E1,-1.859069592E0,1.843771521E0,-8.140435159E-1,2.741951862E0
1.212257854E1,-1.233743792E0,1.828659977E0,-1.482593104E0,2.657856912E0
1.213253754E1,-1.084826319E0,1.982244113E0,-1.465350834E0,2.693212382E0
1.214249554E1,-1.128218506E0,2.220497101E0,-1.091058866E0,2.719171532E0
1.215245454E1,-1.188365890E0,2.444279400E0,-4.390826261E-1,2.753090776E0
1.216241254E1,-1.178807446E0,2.727995659E0,5.031890865E-1,3.014091333E0
1.217237154E1,-1.033242182E0,2.828533269E0,1.553303483E0,3.388353814E0
1.218232954E1,-8.686594337E-1,2.577849101E0,2.278755834E0,3.548605832E0
1.219228854E1,-8.864998734E-1,2.111278714E0,2.493748598E0,3.385581472E0
1.220224654E1,-9.692321277E-1,1.635225313E0,2.364017594E0,3.033471926E0
1.221220554E1,-9.227292216E-1,1.346551200E0,2.063751229E0,2.631292171E0
1.222216354E1,-8.446180218E-1,1.233960139E0,1.590295308E0,2.182905493E0
1.223212254E1,-1.034741408E0,1.211636639E0,7.578494346E-1,1.764394766E0
1.224208054E1,-1.401148991E0,1.301818246E0,-2.697706497E-1,1.931508593E0
1.225203954E1,-1.621059848E0,1.506950265E0,-8.152844413E-1,2.358690919E0
1.226199754E1,-1.592868083E0,1.683734398E0,-7.293921324E-1,2.429856608E0
1.227195654E1,-1.496260386E0,1.742039325E0,-2.602793030E-1,2.311112603E0
1.228191454E1,-1.639544066E0,1.624937721E0,1.306443393E-1,2.312054343E0
1.229187354E1,-1.908382670E0,1.473383154E0,7.824510098E-2,2.412240583E0
1.230183546E1,-2.403451216E0,1.344447956E0,-6.687694430E-2,2.754739658E0
1.231179446E1,-3.184266175E0,1.119192744E0,-1.200222874E-1,3.377358261E0
1.232175246E1,-4.126968316E0,6.516563970E-1,8.287024856E-2,4.178922232E0
1.233171146E1,-5.226389869E0,-5.807922363E-2,6.463219821E-1,5.266522227E0
1.234166946E1,-6.347611597E0,-9.193881226E-1,1.617730297E0,6.614718348E0
1.235162846E1,-6.394340791E0,-1.164323893E0,2.168901855E0,6.851815783E0
1.236158746E1,-5.565923649E0,-9.238273287E-1,2.883002422E0,6.335981847E0
1.237154546E1,-4.622371323E0,-8.190621811E-1,2.073271812E0,5.131825748E0
1.238150446E1,-3.703856775E0,-6.783518600E-1,3.815121833E-1,3.784741444E0
1.239146246E1,-2.842591730E0,-4.463097847E-1,-3.272230518E-1,2.895961859E0
1.240142146E1,-2.066604232E0,-2.362158179E-1,-3.332398367E-1,2.106584856E0
1.241137946E1,-1.573636590E0,-3.167185289E-1,6.260964175E-2,1.606412995E0
1.242133846E1,-1.327465303E0,-8.351677519E-1,5.811056471E-1,1.672528947E0
1.243129646E1,-9.500760645E-1,-1.755670938E0,1.072980444E0,2.266343312E0
1.244125546E1,-2.836121786E-1,-2.869910506E0,1.707470001E0,3.351458785E0
1.245121346E1,2.241220218E-1,-3.914755318E0,1.934499989E0,4.372394091E0
1.246117246E1,1.774220645E-1,-4.427471931E0,1.115204066E0,4.569208509E0
1.247113046E1,-2.794536388E-1,-4.851230174E0,-6.594092202E-1,4.903809648E0
1.248108946E1,-4.079345083E-1,-5.497580808E0,-2.668668639E0,6.124671224E0
1.249104746E1,8.044716239E-2,-6.359936943E0,-3.848086535E0,7.433911463E0
1.250100646E1,9.853692734E-1,-7.279667712E0,-3.250602837E0,8.033114801E0
1.251096446E1,2.009007404E0,-7.665298017E0,-7.294085777E-1,7.957696985E0
1.252092346E1,2.379161298E0,-6.245342041E0,2.196857978E0,7.034976238E0
1.253088146E1,1.413856160E0,-3.929757519E0,2.991759464E0,5.137373657E0
1.254084046E1,6.954567200E-1,-2.382895330E0,2.026809837E0,3.204654165E0
1.255079846E1,7.379039973E-1,-1.695428830E0,6.243905380E-1,1.951626186E0
1.256075746E1,1.127917374E0,-1.344558468E0,-5.888821515E-1,1.851166461E0
1.257071546E1,1.636961936E0,-9.312825286E-1,-1.411634218E0,2.353644555E0
1.258067446E1,2.168836951E0,-3.171810436E-1,-1.919374850E0,2.913495727E0
1.259063246E1,2.475541538E0,3.076921821E-1,-2.372815607E0,3.442852638E0
1.260059146E1,2.488681986E0,8.358261484E-1,-2.395529701E0,3.553970445E0
1.261054946E1,1.920429103E0,1.619555359E0,-1.068595617E0,2.730000750E0
1.262050846E1,5.544557923E-1,2.469732329E0,5.053119913E-1,2.581150753E0
1.263046646E1,1.299251318E-3,2.158454635E0,-3.858633158E-1,2.192673846E0
1.264042546E1,3.016338819E-1,1.726610861E0,-1.553476852E0,2.342105548E0
1.265038346E1,7.104039574E-1,1.347935820E0,-2.145657711E0,2.631625310E0
1.266034246E1,1.200062660E0,8.081495225E-1,-2.389745635E0,2.793589132E0
1.267030046E1,1.818875247E0,1.741745210E-1,-2.576910623E0,3.158973296E0
1.268025946E1,2.655256296E0,-4.201727307E-1,-2.814659288E0,3.892202208E0
1.269021746E1,3.564867289E0,-9.040766037E-1,-3.256256802E0,4.912111731E0
1.270017646E1,4.387872832E0,-1.130285497E0,-3.796614080E0,5.911450902E0
1.271013446E1,5.148863391E0,-1.130811746E0,-4.308965242E0,6.808576274E0
1.272009346E1,5.811026650E0,-8.693722093E-1,-4.678671239E0,7.510912283E0
1.273005146E1,6.399584574E0,-3.490156245E-1,-4.713673257E0,7.955828693E0
1.274001046E1,6.732720330E0,3.681816280E-1,-4.373561772E0,8.036984716E0
1.274996846E1,6.660836999E0,1.102477893E0,-3.792309652E0,7.743630901E0
1.275992746E1,6.004420384E0,1.574361645E0,-3.300765515E0,7.030414762E0
1.276988646E1,5.148130150E0,1.878170691E0,-2.885393056E0,6.193243276E0
1.277984446E1,4.345480519E0,2.225045650E0,-2.379500729E0,5.431026864E0
1.278980346E1,3.491963620E0,2.553691914E0,-1.868307315E0,4.712295039E0
1.279976146E1,2.573696993E0,2.679580128E0,-1.383404153E0,3.964577270E0
1.280972046E1,1.500383842E0,2.555473561E0,-9.100048032E-1,3.099952505E0
1.281967846E1,2.946482134E-1,2.437585507E0,-2.436356422E-1,2.467387079E0
1.282963746E1,-1.087865117E0,2.340947989E0,1.646259009E0,3.061642815E0
1.283959546E1,-2.683065069E0,2.253187129E0,4.822438484E0,5.960839147E0
1.284955446E1,-4.735570495E0,1.919304684E0,9.108341723E0,1.044371808E1
1.285951246E1,-8.408421823E0,1.346810816E0,1.603834068E1,1.815884987E1
1.286947146E1,-1.079251934E1,4.121088356E-1,1.301899288E1,1.691574660E1
1.287942946E1,-1.093766594E1,-1.095864692E0,3.404423785E0,1.150754348E1
1.288938846E1,-9.620843158E0,-2.332171903E0,-2.233878746E0,1.014839214E1
1.289934646E1,-8.030965342E0,-1.978780807E0,-3.970790063E0,9.174919702E0
1.290930546E1,-6.994768562E0,-4.973875523E-1,-3.161950569E0,7.692341192E0
1.291926346E1,-5.722522025E0,1.337278100E0,-1.269859996E0,6.012330284E0
1.292922246E1,-3.627658784E0,2.037593856E0,-7.450317532E-2,4.161399728E0
1.293918046E1,-1.477821191E0,1.940814836E0,9.694999301E-1,2.625004346E0
1.294913946E1,3.587769663E-1,1.489329096E0,1.786645979E0,2.353492282E0
1.295909746E1,1.327719072E0,4.555922395E-1,2.010112528E0,2.451724821E0
1.296905646E1,1.226279236E0,-1.884163502E0,2.441398476E0,3.318773778E0
1.297901446E1,1.914319932E-2,-5.628109372E0,4.135105886E0,6.983915969E0
1.298897346E1,-1.666647665E0,-9.920210660E0,8.430771636E0,1.312502207E1
1.299893146E1,-3.464875808E0,-1.291447858E1,1.077730722E1,1.717380192E1
1.300889046E1,-3.930625831E0,-1.309534231E1,5.741529568E0,1.482912578E1
1.301884846E1,-2.823848480E0,-1.101447731E1,-3.767136804E0,1.197848698E1
1.302880746E1,-1.419821489E0,-8.570927641E0,-9.844140723E0,1.312950114E1
1.303876546E1,6.325810254E-2,-5.788720107E0,-1.058377959E1,1.206356798E1
1.304872446E1,2.508097081E0,-2.401480120E0,-7.573821836E0,8.331892638E0
1.305868246E1,4.228057904E0,1.546793193E-1,-4.852344069E0,6.437829005E0
1.306864146E1,5.183104686E0,1.944468176E0,-3.398614576E0,6.495853424E0
1.307859946E1,5.995022739E0,3.394625605E0,-2.147284698E0,7.216274123E0
1.308855846E1,6.518018757E0,4.348377814E0,-1.366787243E0,7.953682512E0
1.309851646E1,6.655371022E0,4.773271002E0,-1.158838035E0,8.271697836E0
1.310847546E1,6.569443265E0,4.927945644E0,-1.248332156E0,8.306657947E0
1.311843346E1,6.310020432E0,4.762661814E0,-1.561695406E0,8.058424037E0
1.312839246E1,5.587612141E0,3.901016116E0,-2.113414702E0,7.134834117E0
1.313835046E1,4.563081726E0,2.438599414E0,-2.981606358E0,5.971470373E0
1.314830946E1,3.546567258E0,6.991240937E-1,-3.911850421E0,5.326301487E0
1.315826746E1,2.526324606E0,-1.281165880E0,-4.675825399E0,5.466904535E0
1.316822646E1,1.598770847E0,-3.094880959E0,-5.050369967E0,6.135193002E0
1.317818446E1,7.948757583E-1,-4.373592178E0,-4.824147626E0,6.559918926E0
1.318814346E1,2.747466302E-1,-4.820930488E0,-4.045115483E0,6.299191674E0
1.319810146E1,1.305624783E-1,-4.316947276E0,-3.014724403E0,5.267033660E0
1.320806046E1,2.326934552E-1,-3.287984671E0,-2.060573999E0,3.887281138E0
1.321801946E1,2.254645425E-1,-2.237385029E0,-1.234485365E0,2.565283638E0
1.322797746E1,2.344675004E-2,-1.245282687E0,-3.766578980E-1,1.301210933E0
1.323793646E1,-1.085325086E-1,-2.689982325E-1,4.041770875E-1,4.974921835E-1
1.324789446E1,2.402784634E-1,5.242596012E-1,4.531247145E-1,7.334193046E-1
1.325785346E1,5.597147781E-1,1.015060265E0,2.370291291E-1,1.183135995E0
1.326781146E1,4.948533690E-1,1.250298429E0,1.166215285E-1,1.349713524E0
1.327777046E1,8.690892041E-2,1.350153669E0,2.192197162E-1,1.370593074E0
1.328772846E1,-5.020530456E-1,1.461680537E0,6.882511961E-1,1.691820606E0
1.329768746E1,-1.284424533E0,1.678109962E0,2.142238551E0,3.009150285E0
1.330764129E1,-2.274825920E0,2.416643704E0,6.706506093E0,7.482795182E0
1.331760029E1,-2.943775458E0,2.884338511E0,6.817585648E0,7.966473289E0
1.332755829E1,-3.078087755E0,2.493211824E0,2.376419538E0,4.619318050E0
1.333751729E1,-2.844980317E0,2.076290145E0,-5.869084239E-2,3.522547145E0
1.334747529E1,-2.091119853E0,1.878033282E0,-1.087165790E0,3.013589339E0
1.335743429E1,-1.409136872E0,1.947974752E0,-1.375437030E0,2.769855480E0
1.336739229E1,-1.088360960E0,2.093990836E0,-1.265992355E0,2.678070919E0
1.337735129E1,-9.698799992E-1,2.301212651E0,-9.932712007E-1,2.687533173E0
1.338730929E1,-1.007914968E0,2.418700755E0,-5.875692324E-1,2.685375863E0
1.339726829E1,-1.156426059E0,2.514436632E0,-4.107544743E-2,2.767923409E0
1.340722629E1,-1.256559627E0,2.519762276E0,6.207240415E-1,2.883304070E0
1.341718529E1,-1.172638634E0,2.427040054E0,1.258946460E0,2.974987559E0
1.342714329E1,-9.500947756E-1,2.262397664E0,1.967453581E0,3.145154506E0
1.343710229E1,-7.296120608E-1,2.002360289E0,3.027540915E0,3.702402528E0
1.344706029E1,-8.500629491E-1,1.506663167E0,3.238290939E0,3.671398797E0
1.345701929E1,-1.401745407E0,1.091539507E0,1.389170970E0,2.255248249E0
1.346697729E1,-1.778683825E0,1.162958568E0,-3.168581311E-1,2.148624643E0
1.347693629E1,-1.697255500E0,1.448506175E0,-7.442898877E-1,2.352193404E0
1.348689429E1,-1.487373202E0,1.670616755E0,-4.841938949E-1,2.288598504E0
1.349685329E1,-1.600177687E0,1.768336008E0,-2.147248884E-1,2.394511984E0
1.350681129E1,-1.905867198E0,1.803640326E0,-8.768484592E-2,2.625478401E0
1.351677029E1,-2.383670086E0,1.737039371E0,9.858288646E-2,2.951085807E0
1.352672829E1,-3.179763234E0,1.554201615E0,2.077445555E-1,3.545362420E0
1.353668729E1,-4.085495185E0,1.248994499E0,3.821272373E-1,4.289204983E0
1.354664529E1,-5.074324840E0,7.474326199E-1,9.574605862E-1,5.217677537E0
1.355660429E1,-6.142251536E0,2.982079983E-5,2.183431016E0,6.518790144E0
1.356656229E1,-6.498697218E0,-5.622659183E-1,3.529260085E0,7.416527842E0
1.357652129E1,-5.743469675E0,-6.624328154E-1,3.802005798E0,6.919646611E0
1.358647929E1,-4.672094291E0,-5.605351424E-1,2.263403385E0,5.221652956E0
1.359643829E1,-3.539046569E0,-4.508893239E-1,6.436802101E-1,3.625255304E0
1.360639629E1,-2.405787764E0,-3.185481226E-1,2.705276448E-2,2.426936242E0
1.361635529E1,-1.390910516E0,-1.005662620E-2,1.295123184E-1,1.396963364E0
1.362631329E1,-7.655274135E-1,4.468465590E-1,7.695695937E-1,1.173857499E0
1.363627229E1,-4.550852859E-1,7.524723351E-1,1.173713937E0,1.466602072E0
1.364623029E1,-3.495307642E-1,5.759103960E-1,9.243377175E-1,1.143785275E0
1.365618929E1,-1.797387314E-1,-7.603953123E-2,6.060153705E-1,6.366652583E-1
1.366614729E1,-7.734638393E-2,-1.015815725E0,3.549036245E-1,1.078805188E0
1.367610629E1,-2.713985145E-1,-2.173745103E0,1.893609095E-1,2.198791141E0
1.368606429E1,-7.811476654E-1,-3.503595486E0,-4.493365958E-2,3.589901396E0
1.369602329E1,-1.614811513E0,-4.636154965E0,-5.316898043E-1,4.938040414E0
1.370598129E1,-2.427343524E0,-5.699417921E0,-1.520523407E0,6.378663861E0
1.371594029E1,-2.859271497E0,-7.018161517E0,-2.379175916E0,7.942953016E0
1.372589829E1,-2.695016778E0,-8.574048885E0,-2.408804342E0,9.304824988E0
1.373585729E1,-1.775176080E0,-9.352928415E0,-1.374891192E0,9.618671730E0
1.374581529E1,-7.205506307E-1,-7.995145884E0,3.409287791E-1,8.034785831E0
1.375577429E1,-5.232614815E-2,-4.993943751E0,1.831332009E0,5.319397442E0
1.376573229E1,2.271193045E-1,-2.532867056E0,2.204581418E0,3.365587308E0
1.377569129E1,6.140424281E-1,-1.232550375E0,1.851849450E0,2.307720719E0
1.378564929E1,1.158256238E0,-7.025663495E-1,1.172236199E0,1.791450444E0
1.379560829E1,1.685230701E0,-1.591623795E-1,1.307526590E-1,1.697772493E0
1.380556629E1,2.222237817E0,4.220607966E-1,-8.675057781E-1,2.422610680E0
1.381552529E1,2.565150118E0,9.449626744E-1,-1.324041758E0,3.037439079E0
1.382548329E1,2.647938505E0,1.565445226E0,-1.353852325E0,3.360820317E0
1.383544229E1,2.352696800E0,2.138348984E0,-1.152210217E0,3.381613075E0
1.384540029E1,1.737025922E0,2.407757691E0,-1.066921267E0,3.154818084E0
1.385535929E1,1.293452634E0,2.192135766E0,-1.228688581E0,2.826332352E0
1.386531729E1,1.371955597E0,1.835826325E0,-1.554767918E0,2.769444662E0
1.387527629E1,1.652185746E0,1.357615886E0,-2.083137527E0,2.985347650E0
1.388523429E1,2.007184242E0,7.356411248E-1,-2.631935553E0,3.390728713E0
1.389519329E1,2.492508404E0,-1.319541156E-2,-3.155461914E0,4.021158061E0
1.390515129E1,3.060461324E0,-7.609443659E-1,-3.690049744E0,4.854062933E0
1.391511029E1,3.708635704E0,-1.362467321E0,-4.229999179E0,5.788193936E0
1.392506829E1,4.442094648E0,-1.740792114E0,-4.751321724E0,6.733321630E0
1.393502729E1,5.247676658E0,-1.885969707E0,-5.028980268E0,7.509036861E0
1.394498529E1,6.098012672E0,-1.827027435E0,-4.965473658E0,8.073395596E0
1.395494429E1,6.921729822E0,-1.549534367E0,-4.493640193E0,8.396678073E0
1.396490229E1,7.482904065E0,-1.035934240E0,-3.688442345E0,8.406641417E0
1.397486129E1,7.273412361E0,-3.589418578E-1,-2.772972734E0,7.792351661E0
1.398481929E1,6.074994523E0,1.004920024E-1,-2.184033279E0,6.456443174E0
1.399477829E1,4.817761297E0,3.047960562E-1,-1.805252988E0,5.153897836E0
1.400473629E1,3.805838647E0,5.902460146E-1,-1.443790688E0,4.113068164E0
1.401469529E1,3.021873209E0,1.046599562E0,-1.085979682E0,3.377342180E0
1.402465329E1,2.377900638E0,1.477415979E0,-6.831226033E-1,2.881635978E0
1.403461229E1,1.678615746E0,1.663726981E0,-3.154417893E-1,2.384374512E0
1.404457029E1,8.278049380E-1,1.589045758E0,-2.690567046E-2,1.791940666E0
1.405452929E1,-1.030811495E-1,1.438426745E0,6.288200963E-1,1.573248848E0
1.406448729E1,-1.270618088E0,1.419402829E0,2.447168216E0,3.101258937E0
1.407444629E1,-2.536841993E0,1.634661641E0,4.622968324E0,5.520826215E0
1.408440429E1,-4.166144661E0,1.597054689E0,7.765847906E0,8.956323951E0
1.409436329E1,-7.013919947E0,9.512484312E-1,1.212016474E1,1.403560971E1
1.410432129E1,-8.877409449E0,1.057164896E-1,9.245565934E0,1.281795865E1
1.411428029E1,-9.055163636E0,-7.509772021E-1,1.780357737E0,9.259029587E0
1.412423829E1,-7.785178801E0,-1.237243350E0,-2.745794583E0,8.347404864E0
1.413419729E1,-6.507899566E0,-5.423795378E-1,-3.388980119E0,7.357453266E0
1.414415529E1,-6.159068713E0,9.664441752E-1,-1.903077491E0,6.518423559E0
1.415411429E1,-6.263927416E0,2.302823558E0,-6.104814738E-1,6.701676704E0
1.416407229E1,-6.277878288E0,2.641562117E0,-1.651641078E-1,6.812993865E0
1.417403129E1,-5.015125875E0,2.188799345E0,3.905141911E-1,5.485875632E0
1.418398929E1,-2.598527194E0,1.345100505E0,1.423576571E0,3.253952858E0
1.419394829E1,-8.607610148E-1,-2.560729623E-1,2.663501455E0,2.810822457E0
1.420390629E1,-6.263093019E-1,-3.283527923E0,4.197353590E0,5.365780104E0
1.421386529E1,-1.391092950E0,-7.065925083E0,6.457802376E0,9.672933805E0
1.422382329E1,-2.337020999E0,-1.038221320E1,9.593205124E0,1.432765168E1
1.423378229E1,-3.204386444E0,-1.208052763E1,9.820916752E0,1.589520828E1
1.424374029E1,-2.821906035E0,-1.116634587E1,4.202352959E0,1.226010621E1
1.425369929E1,-1.135531619E0,-8.259254674E0,-4.136367715E0,9.306678124E0
1.426365729E1,3.327358067E-1,-5.181732929E0,-9.489532236E0,1.081722198E1
1.427361629E1,1.545489848E0,-2.571503702E0,-1.045510693E1,1.087705986E1
1.428357429E1,3.238911329E0,-5.455686092E-2,-8.326517535E0,8.934451147E0
1.429353329E1,4.461234924E0,1.899948646E0,-5.783234834E0,7.547067447E0
1.430349517E1,5.274215416E0,3.367858806E0,-3.887742351E0,7.367113531E0
1.431345417E1,5.918437663E0,4.382524384E0,-2.349609470E0,7.730141590E0
1.432341217E1,6.303498448E0,4.808998075E0,-1.194655155E0,8.017964586E0
1.433337117E1,6.358635353E0,4.869606804E0,-7.526471668E-1,8.044363973E0
1.434332917E1,6.104839296E0,4.571305835E0,-9.086392591E-1,7.680594064E0
1.435328817E1,5.563633295E0,3.673218534E0,-1.157292616E0,6.766526142E0
1.436324617E1,4.738412826E0,2.335182635E0,-1.838951662E0,5.593512069E0
1.437320517E1,3.854396265E0,9.374279523E-1,-2.728328950E0,4.814449147E0
1.438316317E1,2.969237158E0,-7.638358140E-1,-3.589438459E0,4.720580780E0
1.439312217E1,2.098286785E0,-2.674273195E0,-4.282162190E0,5.467308074E0
1.440308017E1,1.232451557E0,-4.373134925E0,-4.609103406E0,6.472022877E0
1.441303917E1,5.694866449E-1,-5.331909308E0,-4.353217555E0,6.906813664E0
1.442299717E1,2.099337530E-1,-5.302012494E0,-3.544440041E0,6.381102089E0
1.443295617E1,1.477918839E-1,-4.362723373E0,-2.495858858E0,5.028370423E0
1.444291417E1,2.212253112E-1,-3.030211338E0,-1.424821590E0,3.355776804E0
1.445287317E1,2.059734339E-1,-1.550440101E0,4.479060014E-1,1.626932497E0
1.446283117E1,6.711609542E-1,-4.413887680E-2,1.713276286E0,1.840576241E0
1.447279017E1,1.431377342E0,6.894802809E-1,9.220572303E-1,1.836957726E0
1.448274817E1,1.661337224E0,9.462514007E-1,2.135087041E-1,1.923803278E0
1.449270717E1,1.479827371E0,1.111564466E0,-8.839354673E-2,1.852910691E0
1.450266517E1,1.057055553E0,1.146733714E0,-2.720779610E-1,1.583158574E0
1.451262417E1,6.208170122E-1,1.135912272E0,-4.146319091E-1,1.359275569E0
1.452258217E1,2.574862343E-1,1.073939388E0,-3.716303158E-1,1.165227043E0
1.453254117E1,-2.255469882E-1,1.025934917E0,1.754597390E-1,1.064988271E0
1.454249917E1,-1.438692793E0,1.079105403E0,1.959267479E0,2.659517715E0
1.455245817E1,-2.481320341E0,1.514564509E0,4.080228013E0,5.009901888E0
1.456241617E1,-2.657931397E0,2.109662544E0,4.558002834E0,5.682487589E0
1.457237517E1,-2.605379546E0,2.214991363E0,2.885740088E0,4.474559774E0
1.458233317E1,-2.483097310E0,2.131329986E0,9.814785361E-1,3.416378181E0
1.459229217E1,-2.110919695E0,2.206269656E0,-1.793468218E-1,3.058720817E0
1.460225017E1,-1.587255925E0,2.332416902E0,-6.418652344E-1,2.893361532E0
1.461220917E1,-1.196022234E0,2.449103352E0,-6.928026688E-1,2.812214777E0
1.462216717E1,-1.016022132E0,2.520071009E0,-5.062927886E-1,2.763944871E0
1.463212617E1,-9.756096858E-1,2.524869819E0,-1.098084442E-1,2.709029301E0
1.464208417E1,-1.026983907E0,2.385727136E0,4.878215075E-1,2.642793926E0
1.465204317E1,-1.106091473E0,2.061820040E0,1.234405696E0,2.645429577E0
1.466200117E1,-1.291882072E0,1.540107486E0,2.095547219E0,2.903826528E0
1.467196017E1,-1.412219524E0,1.015728017E0,3.019082625E0,3.484383344E0
1.468191817E1,-1.405315132E0,6.934101945E-1,3.434995952E0,3.775569561E0
1.469187717E1,-1.392210937E0,6.571726602E-1,2.583476461E0,3.007403835E0
1.470183517E1,-1.635158070E0,8.471954745E-1,1.018261104E0,2.104361604E0
1.471179417E1,-1.934383484E0,1.152318975E0,-2.864538523E-1,2.269743221E0
1.472175217E1,-1.962241958E0,1.493493483E0,-6.474480097E-1,2.549530390E0
1.473171117E1,-1.898844692E0,1.699784421E0,-2.944948702E-1,2.565463987E0
1.474166917E1,-2.074862840E0,1.702225633E0,-8.322692871E-2,2.685061383E0
1.475162817E1,-2.266418794E0,1.729207025E0,-1.501716276E-1,2.854708847E0
1.476158617E1,-2.749290633E0,1.751162151E0,-1.022478481E-1,3.261230210E0
1.477154517E1,-3.472564897E0,1.576217551E0,8.664404154E-3,3.813560515E0
1.478150317E1,-4.327231944E0,1.173366612E0,3.501043761E-1,4.497143379E0
1.479146217E1,-5.324272259E0,6.096295345E-1,1.211239028E0,5.494235456E0
1.480142017E1,-6.291795831E0,-1.090353692E-1,2.524722469E0,6.780324995E0
1.481137817E1,-6.033804397E0,-3.621040320E-1,3.605275058E0,7.038176118E0
1.482133717E1,-5.044913346E0,-3.110496533E-1,3.837768538E0,6.346366669E0
1.483129617E1,-4.225352397E0,-3.349782139E-1,1.960862600E0,4.670202931E0
1.484125417E1,-3.472893510E0,-3.158449548E-1,7.667453885E-2,3.488069144E0
1.485121217E1,-2.611476438E0,-2.106646550E-1,-5.234708118E-1,2.671742966E0
1.486117117E1,-1.844236375E0,-9.790870249E-2,-3.757233667E-1,1.884664949E0
1.487112917E1,-1.441469636E0,-3.704737365E-2,1.829921039E-1,1.453510691E0
1.488108817E1,-1.200392443E0,-1.268003798E-1,6.709013379E-1,1.380988399E0
1.489104617E1,-8.830810064E-1,-5.620723754E-1,5.870194479E-1,1.200145513E0
1.490100517E1,-5.389682722E-1,-1.428261945E0,3.737129478E-1,1.571648927E0
1.491096317E1,-1.926675099E-1,-2.469219528E0,3.099712805E-1,2.496046483E0
1.492092217E1,1.353180188E-1,-3.516345924E0,4.130531609E-1,3.543107751E0
1.493088017E1,1.168601131E-1,-4.555990807E0,2.320726271E-1,4.563394156E0
1.494083917E1,-5.238631600E-1,-5.392962425E0,-9.689185707E-1,5.504296461E0
1.495079717E1,-1.191462575E0,-6.228023173E0,-2.657456895E0,6.875313292E0
1.496075617E1,-1.149193638E0,-7.259512945E0,-3.596240817E0,8.182549861E0
1.497071417E1,-2.886027771E-1,-8.110619622E0,-2.813983935E0,8.589758309E0
1.498067317E1,1.014831054E0,-7.701709798E0,5.088510185E-2,7.768449342E0
1.499063117E1,1.698672865E0,-5.394038898E0,2.730950257E0,6.280066436E0
1.500059017E1,1.455824550E0,-3.177766410E0,2.895611358E0,4.538963496E0
1.501054817E1,1.390882450E0,-1.834542276E0,1.543926303E0,2.771968214E0
1.502050717E1,1.703678082E0,-1.318294530E0,1.456021017E-1,2.159078379E0
1.503046517E1,2.090135767E0,-9.889033306E-1,-8.954999077E-1,2.479620416E0
1.504042417E1,2.568773053E0,-1.854479527E-1,-1.646858933E0,3.056980583E0
1.505038217E1,2.995890521E0,5.235883409E-1,-1.974369960E0,3.625967665E0
1.506034117E1,3.127455212E0,1.212288603E0,-1.756438970E0,3.786251130E0
1.507029917E1,2.923914220E0,1.965580133E0,-1.084657334E0,3.686361507E0
1.508025817E1,1.978886057E0,2.909656954E0,7.377315044E-2,3.519593172E0
1.509021617E1,4.223169047E-1,3.154390996E0,9.850014836E-2,3.184059736E0
1.510017517E1,-9.561460590E-1,2.532753035E0,-8.490654141E-1,2.837246077E0
1.511013317E1,-1.250097869E0,1.993008837E0,-1.683407539E0,2.892868792E0
1.512009217E1,-6.044231737E-1,1.394258047E0,-2.221256654E0,2.691331269E0
1.513005017E1,3.044592565E-1,4.931518292E-1,-2.362261967E0,2.432319010E0
1.514000917E1,1.326894030E0,-5.918844044E-1,-2.412973115E0,2.816631706E0
1.514996717E1,2.377121204E0,-1.471069411E0,-2.529806623E0,3.770235003E0
1.515992617E1,3.321434838E0,-1.871997201E0,-2.908417637E0,4.795330651E0
1.516988417E1,4.204342766E0,-1.827550761E0,-3.530872162E0,5.786492729E0
1.517984317E1,5.144087970E0,-1.376721078E0,-4.202837108E0,6.783866282E0
1.518980117E1,6.008974780E0,-5.978023714E-1,-4.633897939E0,7.611711746E0
1.519976017E1,6.748418934E0,2.896330565E-1,-4.537660956E0,8.137285319E0
1.520971817E1,7.158875347E0,1.066125169E0,-4.111648318E0,8.324167886E0
1.521967717E1,7.013158640E0,1.527963989E0,-3.489469197E0,7.980943762E0
1.522963517E1,6.234966157E0,1.636763130E0,-2.912517412E0,7.073652112E0
1.523959417E1,5.272793373E0,1.747868414E0,-2.412333722E0,6.056133084E0
1.524955217E1,4.349032702E0,1.975951340E0,-1.942562861E0,5.156745060E0
1.525951017E1,3.429232351E0,2.138867632E0,-1.511371053E0,4.314931253E0
1.526946917E1,2.477593326E0,2.098223636E0,-1.008602892E0,3.399748654E0
1.527942717E1,1.392638953E0,2.047086811E0,-6.925588399E-2,2.476853658E0
1.528938617E1,6.235119939E-2,2.183101818E0,1.853564438E0,2.864528294E0
1.529934417E1,-1.460391226E0,2.632870231E0,4.507457748E0,5.420509527E0
1.530929954E1,-3.471634605E0,2.893761883E0,7.840789915E0,9.050087909E0
1.531925754E1,-7.131928453E0,2.269385086E0,1.243023674E1,1.450948991E1
1.532921654E1,-1.013919006E1,8.997291988E-1,1.087643975E1,1.489663147E1
1.533917454E1,-1.141432746E1,-8.591349041E-1,3.751371249E0,1.204565359E1
1.534913354E1,-1.089433925E1,-2.418729406E0,-1.175886470E0,1.122138978E1
1.535909154E1,-9.777998773E0,-2.088455862E0,-2.525228545E0,1.031250150E1
1.536905054E1,-9.173735813E0,-9.463893950E-2,-2.016612000E0,9.393248068E0
1.537900854E1,-8.274975498E0,2.122612372E0,-1.600097288E0,8.691433375E0
1.538896754E1,-6.426267173E0,3.001307382E0,-1.579629255E0,7.266359774E0
1.539892554E1,-3.720880943E0,2.732280498E0,-9.253027274E-1,4.708130930E0
1.540888454E1,-1.204690731E0,1.758983971E0,7.979958326E-2,2.133464868E0
1.541884254E1,4.453566885E-1,9.165861368E-2,1.112300046E0,1.201646901E0
1.542880154E1,6.296293509E-1,-2.971426356E0,2.387528663E0,3.863431224E0
1.543875954E1,-5.867061102E-1,-7.347258017E0,5.130777953E0,8.980607264E0
1.544871854E1,-2.203477026E0,-1.187365782E1,1.007446255E1,1.572685145E1
1.545867654E1,-3.297471194E0,-1.468673456E1,1.192737970E1,1.920510023E1
1.546863554E1,-2.825461727E0,-1.398458687E1,5.592080584E0,1.532394431E1
1.547859354E1,-1.585598824E0,-1.096457015E1,-4.493838998E0,1.195535492E1
1.548855254E1,-4.613137400E-1,-8.031488668E0,-1.020842811E1,1.299729299E1
1.549851054E1,1.272754660E0,-4.602482019E0,-1.083116593E1,1.183709848E1
1.550846954E1,3.673482828E0,-9.590462780E-1,-7.843137572E0,8.713727838E0
1.551842754E1,5.155884728E0,1.639264569E0,-4.876925179E0,7.283868124E0
1.552838654E1,5.966246252E0,3.432945333E0,-2.935453116E0,7.483187355E0
1.553834454E1,6.619069169E0,4.643895509E0,-1.257134408E0,8.182800809E0
1.554830354E1,7.114096200E0,5.326271423E0,-9.763344482E-2,8.887579215E0
1.555826154E1,7.232239192E0,5.598594382E0,1.165016788E-1,9.146754366E0
1.556822054E1,7.014331006E0,5.567696525E0,-4.531008871E-1,8.966904955E0
1.557817854E1,6.504678335E0,5.100953645E0,-1.034897090E0,8.330761089E0
1.558813754E1,5.504197517E0,4.014573137E0,-1.769667419E0,7.038800363E0
1.559809554E1,4.308851221E0,2.630796808E0,-2.609929850E0,5.683223074E0
1.560805454E1,3.169187960E0,8.660018742E-1,-3.463077790E0,4.773533214E0
1.561801254E1,2.071501860E0,-1.228576607E0,-4.184883233E0,4.828433297E0
1.562797154E1,1.093189591E0,-3.182107968E0,-4.624747632E0,5.719192710E0
1.563792954E1,1.619164181E-1,-4.694723015E0,-4.553420371E0,6.542192155E0
1.564788854E1,-5.546370560E-1,-5.486814914E0,-3.907056289E0,6.758538971E0
1.565784654E1,-1.037880194E0,-5.171964571E0,-2.550802805E0,5.859437496E0
1.566780554E1,-1.213140543E0,-3.736077272E0,-7.467315388E-1,3.998448618E0
1.567776354E1,-5.142298722E-1,-2.028706673E0,-1.991561651E-3,2.092865761E0
1.568772154E1,2.369016963E-1,-8.884434879E-1,1.365324855E-2,9.195872205E-1
1.569768054E1,5.691346425E-1,-7.424385130E-2,5.265827000E-2,5.763673170E-1
1.570763854E1,7.329467279E-1,6.436644226E-1,2.470314127E-1,1.006250125E0
1.571759754E1,8.405916291E-1,1.328630068E0,1.110459927E0,1.924830745E0
1.572755554E1,8.508084691E-1,2.238523482E0,4.152670337E0,4.793697254E0
1.573751454E1,2.275888360E-1,2.439712139E0,3.778699965E0,4.503616928E0
1.574747254E1,-5.083446497E-1,1.731669872E0,9.652244461E-1,2.046644342E0
1.575743154E1,-7.616454470E-1,1.183309802E0,-4.420494120E-2,1.407934641E0
1.576738954E1,-7.057203376E-1,9.673528326E-1,-5.582874727E-1,1.321172812E0
1.577734854E1,-5.939964187E-1,9.216463172E-1,-9.252961493E-1,1.434725285E0
1.578730654E1,-6.130723751E-1,9.526482546E-1,-9.735918117E-1,1.493746113E0
1.579726554E1,-7.017541713E-1,1.064680907E0,-7.994640684E-1,1.505040580E0
1.580722354E1,-7.929672271E-1,1.337299150E0,-4.344714388E-1,1.614289773E0
1.581718254E1,-9.159932292E-1,1.716991607E0,1.263981644E-1,1.950148782E0
1.582714054E1,-9.903323901E-1,2.095533332E0,7.606840917E-1,2.439397154E0
1.583709954E1,-9.772100687E-1,2.333584006E0,1.299486376E0,2.844155177E0
1.584705754E1,-9.273040831E-1,2.397118682E0,1.689315566E0,3.075688202E0
1.585701654E1,-9.218965781E-1,2.254435510E0,2.086864396E0,3.207393923E0
1.586697454E1,-9.151594162E-1,2.002048048E0,2.590222979E0,3.399259952E0
1.587693354E1,-9.839343667E-1,1.647835418E0,3.103227274E0,3.648768000E0
1.588689154E1,-1.140927429E0,1.197717342E0,3.151727589E0,3.559442235E0
1.589685054E1,-1.186923382E0,1.021417358E0,2.332910260E0,2.809724331E0
1.590680854E1,-1.232452726E0,1.147846439E0,1.036399240E0,1.977527384E0
1.591676754E1,-1.421396729E0,1.281617285E0,-1.929664488E-1,1.923576767E0
1.592672554E1,-1.667330035E0,1.464742724E0,-9.279718351E-1,2.405533708E0
1.593668454E1,-1.878888144E0,1.655509304E0,-8.986188126E-1,2.660535188E0
1.594664254E1,-2.131489615E0,1.847201498E0,-1.663195176E-1,2.825431566E0
1.595660154E1,-2.350233952E0,2.090102438E0,5.148811059E-1,3.187041008E0
1.596655954E1,-2.420754882E0,2.153051223E0,4.945914137E-1,3.277240368E0
1.597651854E1,-2.857795075E0,1.890452183E0,2.361456513E-1,3.434613066E0
1.598647654E1,-3.627902613E0,1.459525838E0,1.437080424E-1,3.913124716E0
1.599643554E1,-4.580642084E0,9.552771628E-1,3.969135301E-1,4.695995817E0
1.600639354E1,-5.835737568E0,2.799243397E-1,1.242553207E0,5.973117199E0
1.601635254E1,-6.782943234E0,-3.503797799E-1,2.231731503E0,7.149245443E0
1.602631054E1,-6.629934465E0,-3.338391763E-1,3.450874650E0,7.481712067E0
1.603626954E1,-5.903577549E0,3.292391717E-2,4.731612514E0,7.565809200E0
1.604622754E1,-5.057983627E0,2.937991977E-2,1.974913313E0,5.429948816E0
1.605618554E1,-4.382001058E0,-1.914366710E-1,-1.188036545E-1,4.387789373E0
1.606614454E1,-3.449863082E0,-1.721069455E-1,-1.769414234E-1,3.458682459E0
1.607610354E1,-2.587716862E0,3.365949690E-2,1.911619250E-1,2.594986397E0
1.608606154E1,-2.114846100E0,3.883954525E-2,5.286643088E-1,2.180267986E0
1.609601954E1,-1.903749921E0,-5.563801110E-1,8.300976312E-1,2.150089455E0
1.610597854E1,-1.577318582E0,-1.757717464E0,9.705810803E-1,2.553337468E0
1.611593654E1,-1.067320340E0,-3.078204700E0,1.373810919E0,3.535798824E0
1.612589554E1,-4.912204939E-1,-4.009484890E0,1.719343503E0,4.390149056E0
1.613585354E1,-1.480655336E-1,-4.565414765E0,1.212206742E0,4.725926424E0
1.614581254E1,-7.372871161E-2,-4.722953957E0,-2.613810647E-1,4.730755761E0
1.615577054E1,-2.567863226E-1,-4.945059859E0,-2.394861072E0,5.500446871E0
1.616572954E1,-3.057392120E-1,-5.546176432E0,-4.461064185E0,7.124229302E0
1.617568754E1,1.339971328E-1,-6.494081426E0,-5.450773262E0,8.479503402E0
1.618564654E1,1.288335151E0,-7.463076741E0,-4.114952288E0,8.619173640E0
1.619560454E1,2.919814153E0,-7.512573422E0,-1.011600468E-1,8.060664207E0
1.620556354E1,3.622616730E0,-5.890972706E0,3.149511495E0,7.599100871E0
1.621552154E1,2.809541513E0,-3.836388010E0,3.011117256E0,5.628341106E0
1.622548054E1,2.120333127E0,-2.230393513E0,1.296278594E0,3.339282256E0
1.623543854E1,2.010246429E0,-1.456277710E0,-2.766697794E-1,2.497675247E0
1.624539754E1,2.060131949E0,-1.130642762E0,-1.384998397E0,2.727767817E0
1.625535554E1,2.198818549E0,-6.134828496E-1,-2.024703670E0,3.051325805E0
1.626531454E1,2.545958971E0,-7.934086919E-2,-2.263928757E0,3.407869639E0
1.627527254E1,2.767928048E0,4.137940031E-1,-1.969710606E0,3.422339993E0
1.628523154E1,2.421189330E0,1.266843125E0,-1.216073214E0,2.990966956E0
1.629518954E1,1.134180327E0,2.386152229E0,-1.340269536E-2,2.642019513E0
1.630514842E1,-4.318402648E-1,2.459260551E0,-2.681752369E-1,2.511247982E0
1.631510642E1,-9.204400367E-1,1.826559073E0,-1.201778818E0,2.372298513E0
1.632506542E1,-5.129575181E-1,9.504608113E-1,-1.748116628E0,2.054851069E0
1.633502342E1,2.208703852E-1,-2.151132166E-2,-1.798538338E0,1.812177314E0
1.634498242E1,1.205184821E0,-9.216030478E-1,-1.742281984E0,2.310274690E0
1.635494042E1,2.220925702E0,-1.608131654E0,-1.893278142E0,3.332131527E0
1.636489942E1,3.198766685E0,-1.992241098E0,-2.364285981E0,4.448705553E0
1.637485742E1,4.109790950E0,-1.970585935E0,-3.033909118E0,5.475234709E0
1.638481642E1,4.921720113E0,-1.572220979E0,-3.789957025E0,6.407728297E0
1.639477442E1,5.655952059E0,-8.650546253E-1,-4.361635206E0,7.194579548E0
1.640473342E1,6.224850474E0,-3.403079510E-2,-4.420782132E0,7.635000732E0
1.641469142E1,6.581281537E0,7.727130568E-1,-4.027011626E0,7.754171444E0
1.642465042E1,6.398028629E0,1.395338028E0,-3.476973990E0,7.414248895E0
1.643460842E1,5.629815005E0,1.595035061E0,-3.072197855E0,6.608884437E0
1.644456742E1,4.829756275E0,1.652996755E0,-2.743912657E0,5.795515561E0
1.645452542E1,4.263397890E0,1.796832998E0,-2.360368347E0,5.193891520E0
1.646448342E1,3.882869866E0,2.109312880E0,-2.006709448E0,4.853118795E0
1.647444242E1,3.591209580E0,2.462711577E0,-1.643624838E0,4.654378280E0
