"Time (s)","Linear Acceleration x (m/s^2)","Linear Acceleration y (m/s^2)","Linear Acceleration z (m/s^2)","Absolute acceleration (m/s^2)"
6.859666668E-3,5.566572690E-1,6.786063601E-1,-3.925124770E-1,9.614780038E-1
1.681766668E-2,6.703809357E-1,5.644549696E-1,2.098524767E-1,9.011426489E-1
2.677666667E-2,6.446265820E-1,5.230682310E-1,5.063776463E-1,9.724001878E-1
3.673466668E-2,7.857991254E-1,5.864254439E-1,9.072931570E-1,1.335872726E0
4.669366666E-2,8.788005522E-1,5.800262511E-1,1.293561392E0,1.667939429E0
5.665166667E-2,7.129071504E-1,6.103312004E-1,1.697637908E0,1.939771957E0
6.661066666E-2,5.186047590E-1,5.286435512E-1,2.136727551E0,2.261419803E0
7.656866667E-2,2.889606267E-1,2.620768833E-1,2.384837190E0,2.416532838E0
8.652666668E-2,9.705033123E-2,-6.658999220E-2,2.581840410E0,2.584521793E0
9.648566667E-2,-3.230586648E-2,-3.202941012E-1,2.634899799E0,2.654492217E0
1.064436667E-1,2.513601065E-2,-4.257639845E-1,2.278314954E0,2.317892538E0
1.164026667E-1,3.931471923E-1,-4.789170751E-1,1.786157736E0,1.890578149E0
1.263606667E-1,6.118909451E-1,-5.068989256E-1,1.497461988E0,1.695213690E0
1.363196667E-1,3.645677564E-1,-7.031846926E-1,1.411254734E0,1.618338124E0
1.462776667E-1,-7.943559408E-2,-8.182906410E-1,8.174185288E-1,1.159345780E0
1.562366667E-1,1.362801781E-1,-6.831553477E-1,1.667450488E-2,6.968152949E-1
1.661946667E-1,9.132120010E-1,-3.714962684E-1,-7.039398605E-1,1.211402891E0
1.761526667E-1,1.796980348E0,-1.450599186E-1,-9.264726090E-1,2.026951466E0
1.861116667E-1,2.023059725E0,-3.213321282E-1,-4.489164734E-1,2.097033855E0
1.960696667E-1,1.139885455E0,-9.731962475E-1,3.541500646E-1,1.540088327E0
2.060286667E-1,1.159938481E-1,-1.647132583E0,1.124102066E0,1.997524912E0
2.159866667E-1,-4.950308320E-1,-1.972962243E0,1.753840175E0,2.685812893E0
2.259456667E-1,-5.416106290E-1,-2.051508037E0,2.460714169E0,3.249175514E0
2.359036667E-1,-3.724588662E-1,-2.318516608E0,3.160518293E0,3.937400253E0
2.458626667E-1,-6.953406528E-1,-2.751313477E0,3.717877813E0,4.677161522E0
2.558206667E-1,-1.242315517E0,-2.987604432E0,3.983049628E0,5.131648120E0
2.657786667E-1,-1.386090949E0,-2.822729031E0,3.487770581E0,4.696125097E0
2.757376667E-1,-1.017284838E0,-2.038763884E0,2.383411054E0,3.297282953E0
2.856956667E-1,-5.054379988E-1,-1.127345444E0,1.455677785E0,1.909286027E0
2.956546667E-1,-7.913054484E-1,-1.454391105E-1,4.057757163E-1,9.010942123E-1
3.056126667E-1,-1.490805518E0,3.515423526E-1,-1.143135338E0,1.911240832E0
3.155716667E-1,-1.739048474E0,2.042343257E-1,-2.422623652E0,2.989164869E0
3.255296667E-1,-1.384686740E0,3.493229688E-1,-2.758295345E0,3.106054912E0
3.354876667E-1,-1.059076935E0,6.867878573E-1,-2.856796371E0,3.123236626E0
3.454466667E-1,-7.686088961E-1,4.680107754E-1,-3.175595924E0,3.300636786E0
3.554046667E-1,3.083236814E-3,-4.594605381E-1,-3.507286833E0,3.537255210E0
3.653636667E-1,4.330670106E-1,-1.749153340E0,-3.132275657E0,3.613618025E0
3.753216667E-1,-4.814264077E-1,-2.464163441E0,-2.053881276E0,3.243809665E0
3.852806667E-1,-1.485576353E0,-2.387121112E0,-5.829253006E-1,2.871425815E0
3.952386667E-1,-1.140086015E0,-1.852155113E0,6.211006021E-1,2.261866628E0
4.051976667E-1,7.614302695E-1,6.769577377E-2,1.476199758E0,1.662385184E0
4.151556667E-1,3.377266392E0,7.020678744E0,3.483932469E0,8.534262929E0
4.251136667E-1,2.452788268E0,1.089392643E1,3.592664952E0,1.173034718E1
4.350726667E-1,-5.578261274E-1,7.416359242E0,1.180206685E0,7.530368000E0
4.450306667E-1,-1.778640556E0,2.010531481E0,-6.617048371E-1,2.764715601E0
4.549896667E-1,-2.581835148E0,-1.246971655E0,-1.694220795E0,3.330344598E0
4.649476667E-1,-2.438318163E0,-1.986914577E0,-1.994495199E0,3.724410839E0
4.749066667E-1,-1.073812503E0,-1.508105675E0,-2.643754238E0,3.227521106E0
4.848646667E-1,-2.176017916E-1,-3.993027024E-1,-3.287313411E0,3.318617581E0
4.948236667E-1,-1.954197943E-2,2.433570224E-1,-3.880163775E0,3.887836860E0
5.047816667E-1,-2.851616907E-1,6.939345436E-1,-3.155157858E0,3.243128652E0
5.147396667E-1,1.268027186E-2,1.044467959E0,-2.456806182E0,2.669638688E0
5.246986667E-1,4.645063198E-1,1.048941079E0,-1.934937800E0,2.249450554E0
5.346566667E-1,2.242939299E-1,8.399344021E-1,-1.461338475E0,1.700384576E0
5.446156667E-1,-5.295852453E-1,4.622915407E-1,-9.381109071E-1,1.172273891E0
5.545736667E-1,-1.368612159E0,9.198064908E-2,-8.399098438E-1,1.608417927E0
5.645326667E-1,-1.580417022E0,3.970098630E-2,-1.319429474E0,2.059171743E0
5.744906667E-1,-1.496395456E0,5.360683456E-2,-1.425474578E0,2.067377765E0
5.844496667E-1,-1.033943263E0,2.313779048E-1,-1.151326702E0,1.564649348E0
5.944076667E-1,-9.342973530E-2,6.132428945E-1,-8.899345279E-1,1.084794647E0
6.043656667E-1,3.503353411E-1,1.265195380E0,-2.493159199E-1,1.336268172E0
6.143246667E-1,2.465700674E-1,4.182272889E-1,-1.154819244E-1,4.990460282E-1
6.242826667E-1,9.057980239E-1,-7.697159202E-1,8.751644611E-2,1.191885811E0
6.342416667E-1,1.701949060E-2,-4.422195842E-1,-9.435885787E-2,4.524946605E-1
6.441996667E-1,-1.123063016E-1,-1.870518440E-1,-5.452265471E-1,5.872589594E-1
6.541586667E-1,1.746329427E-2,-3.133956293E-1,-1.567801361E0,1.598913036E0
6.641166667E-1,5.440413165E-1,8.701241612E-3,-2.847896909E0,2.899409158E0
6.740742917E-1,1.293285989E0,7.642006803E-1,-1.756472007E0,2.311230244E0
6.840332917E-1,2.078921392E0,7.889234389E-1,3.801152104E-1,2.255837299E0
6.939912917E-1,2.448432677E0,8.044575175E-1,1.287830536E0,2.881055702E0
7.039502917E-1,2.431137198E0,1.377421136E0,1.716500441E0,3.279343047E0
7.139082917E-1,2.068167778E0,1.802705649E0,1.685435354E0,3.219900300E0
7.238672917E-1,2.065670432E0,1.838682982E0,1.545233740E0,3.167885218E0
7.338252917E-1,2.599436436E0,1.412187657E0,2.019227752E0,3.581706923E0
7.437842917E-1,1.409415200E0,7.625279380E-1,1.766126345E0,2.384764627E0
7.537422917E-1,2.161215105E0,1.158935684E-1,1.679334953E0,2.739424745E0
7.637002917E-1,1.689167047E0,-2.100610761E-1,1.701221082E0,2.406566877E0
7.736592917E-1,1.661688641E0,-1.060809904E0,1.445993627E0,2.444877167E0
7.836172917E-1,1.767521490E0,-1.734604298E0,2.060174049E0,3.221381909E0
7.935762917E-1,1.638372284E0,-1.848189385E0,2.663673655E0,3.632523240E0
8.035342917E-1,8.311764425E-1,-2.109476602E0,2.731985506E0,3.550280358E0
8.134932917E-1,-3.979731917E-1,-2.355155554E0,2.460126816E0,3.428901325E0
8.234512917E-1,-1.965185446E0,-1.916153327E0,1.865136078E0,3.318483087E0
8.334102917E-1,-3.625715754E0,-1.481118290E0,1.877217010E0,4.343209622E0
8.433682917E-1,-4.634946930E0,-1.047684878E0,2.287568758E0,5.273836124E0
8.533262917E-1,-5.392975874E0,4.573673080E-1,1.765923446E0,5.693141422E0
8.632852917E-1,-6.432805529E0,1.232206559E0,1.077010930E0,6.637715912E0
8.732432917E-1,-7.468923957E0,1.178784131E0,6.572796643E-1,7.589886274E0
8.832022917E-1,-8.036352966E0,8.510751021E-1,6.176215088E-1,8.104859910E0
8.931602917E-1,-9.063049191E0,9.440858844E-1,4.134841007E-1,9.121465227E0
9.031192917E-1,-9.006939309E0,1.150800453E0,1.287556887E-2,9.080168676E0
9.130772917E-1,-9.415961984E0,5.510842512E-1,-1.218380232E0,9.510440807E0
9.230352917E-1,-9.876772864E0,7.639714329E-2,-3.032765987E0,1.033218991E1
9.329942917E-1,-1.009405072E1,-1.416782107E0,-3.101217002E0,1.065432674E1
9.429522917E-1,-9.472774701E0,-2.549394503E0,-2.130296783E0,1.003847784E1
9.529112917E-1,-9.151314665E0,-3.225850403E0,-1.186162659E0,9.775461768E0
9.628692917E-1,-8.397868184E0,-3.336695193E0,-1.640390158E0,9.184149646E0
9.728282917E-1,-9.162620257E0,-2.685060431E0,-2.756024871E0,9.937747862E0
9.827862917E-1,-9.455647622E0,-1.604302020E0,-3.661239343E0,1.026585264E1
9.927452917E-1,-8.955346402E0,-1.024721035E0,-4.033938530E0,9.875269234E0
1.002703292E0,-8.104460750E0,-1.454484661E0,-4.720423282E0,9.491059247E0
1.012661292E0,-6.729204984E0,-3.429188205E0,-5.858289694E0,9.558299514E0
1.022620292E0,-6.430352622E0,-5.165651332E0,-5.941217245E0,1.016520786E1
1.032578292E0,-5.319234298E0,-4.423697846E0,-4.868112548E0,8.459425272E0
1.042537292E0,-6.810567820E-1,-4.505172071E0,-3.014290540E0,5.463182332E0
1.052495292E0,1.547238166E0,-5.372526991E0,-8.301815388E-1,5.652184852E0
1.062454292E0,1.395632143E0,-5.771973097E0,1.038731548E-1,5.939213091E0
1.072412292E0,1.436462665E0,-4.506460798E0,2.069589821E-1,4.734389710E0
1.082371292E0,2.605542684E-1,-1.368926740E0,2.136590141E-1,1.409786906E0
1.092329292E0,-1.522458835E0,8.550593948E-1,-1.209388969E0,2.124059592E0
1.102287292E0,7.923924458E-1,-3.057602620E-1,-2.956303410E0,3.075890924E0
1.112246292E0,4.772820767E0,-2.297088609E0,-4.167041039E0,6.739485527E0
1.122204292E0,7.053265861E0,-3.094167598E0,-3.935750623E0,8.649425727E0
1.132163292E0,7.637378731E0,-2.677521324E0,-1.504735632E0,8.231822620E0
1.142121292E0,7.892577535E0,-1.647816122E0,2.002806724E0,8.307786281E0
1.152080292E0,8.536333174E0,-1.429092835E0,3.950428888E0,9.514051650E0
1.162038292E0,1.002721003E1,-1.772662947E0,4.172786805E0,1.100451837E1
1.171996292E0,1.088972579E1,-1.833384528E0,3.967379382E0,1.173403280E1
1.181955292E0,1.075091874E1,-5.392641413E-1,4.018343421E0,1.149000189E1
1.191913292E0,9.734738148E0,5.966539782E-1,5.169808702E0,1.103848019E1
1.201872292E0,9.215532880E0,-3.710836011E-1,5.287371651E0,1.063108876E1
1.211830292E0,8.654652168E0,-5.732148296E-1,4.390919816E0,9.721715703E0
1.221789292E0,7.720796279E0,-3.667800504E-1,3.008384267E0,8.294311225E0
1.231747292E0,6.791219383E0,-1.597076324E0,1.697747251E0,7.180087689E0
1.241706292E0,6.222087665E0,-1.897660630E0,1.136194620E0,6.603516411E0
1.251664292E0,5.963367668E0,-8.247480136E-1,1.272309687E0,6.153107765E0
1.261622292E0,5.902366006E0,3.780283391E-2,2.130505528E0,6.275221695E0
1.271581292E0,5.556185696E0,-3.353553593E-1,2.499309300E0,6.101656307E0
1.281539292E0,5.878184845E0,7.535950005E-2,1.924806329E0,6.185759091E0
1.291498292E0,5.972394015E0,1.421960401E0,2.251879692E0,6.539298418E0
1.301456292E0,5.419593569E0,2.510886787E0,2.717898687E0,6.562280105E0
1.311415292E0,4.714945611E0,3.281536946E0,2.707980055E0,6.350775765E0
1.321373292E0,3.958356836E0,2.874801117E0,2.619805212E0,5.549454897E0
1.331331292E0,3.122312586E0,1.571405293E0,2.133701032E0,4.095220455E0
1.341290292E0,2.452577183E0,5.661011070E-2,1.260763775E0,2.758235820E0
1.351248292E0,1.951869582E0,-1.498895141E0,2.167281445E-1,2.470516666E0
1.361207292E0,1.359717375E0,-2.225264921E0,-8.394210166E-1,2.739573498E0
1.371165292E0,5.441676164E-1,-1.323383946E0,-1.522834811E0,2.089614636E0
1.381124292E0,-3.043083984E-1,9.777111751E-1,-9.079049219E-1,1.368507980E0
1.391082292E0,-3.948203731E-1,2.511984894E0,2.178362650E-1,2.552137119E0
1.401040292E0,3.176160765E-1,7.230976778E-1,1.256618099E0,1.484196507E0
1.410999292E0,1.450103635E-1,-1.544249069E0,1.888733686E0,2.443982023E0
1.420957292E0,-7.358481163E-1,-2.198686987E0,3.007894270E0,3.797778937E0
1.430916292E0,-1.566343943E0,-3.043173738E0,3.190999244E0,4.679403373E0
1.440874292E0,-2.200159900E0,-3.473545767E0,1.807028495E0,4.491277743E0
1.450833292E0,-1.974473163E0,-4.325131331E0,1.662664542E-1,4.757409993E0
1.460791292E0,-1.212903146E0,-4.495941364E0,-1.562902564E0,4.911953503E0
1.470750292E0,-1.284626847E0,-3.094944693E0,-3.699840907E0,4.991770380E0
1.480708292E0,-1.613501737E0,-4.122035605E-1,-5.233139310E0,5.491725291E0
1.490666292E0,1.695335859E-1,1.199222707E0,-4.062618246E0,4.239309348E0
1.500625292E0,1.040196860E0,1.477746931E0,-5.220631531E0,5.524557818E0
1.510583292E0,-5.856980503E-1,1.823794802E0,-5.270279070E0,5.607594062E0
1.520542292E0,2.456830448E-1,1.381066729E0,-3.286307982E0,3.573167449E0
1.530500292E0,-1.453097409E-1,-1.997993588E-3,-1.998727999E0,2.004004123E0
1.540459292E0,-3.636476970E-1,-2.556753516E-1,-1.248221498E0,1.325015638E0
1.550417292E0,-7.783801782E-1,-2.046510860E-1,-1.831555519E-1,8.254112460E-1
1.560375292E0,-7.542206526E-1,-2.735251468E-1,1.423199426E0,1.633756838E0
1.570334292E0,-1.437218710E0,7.659677088E-2,2.822463859E0,3.168243508E0
1.580292292E0,-1.471002168E0,1.072085820E0,2.027984835E0,2.725057408E0
1.590251292E0,-1.330042171E0,1.502877095E0,1.303806299E-1,2.011131733E0
1.600209292E0,-9.831923550E-1,1.321876827E0,-1.162256610E0,2.016151279E0
1.610168292E0,-8.199106121E-1,1.096360829E0,-1.375158702E0,1.940443747E0
1.620126292E0,-9.828239805E-1,1.473144880E0,-1.465853987E0,2.298875100E0
1.630084292E0,-1.150941955E0,2.297559895E0,-1.319244118E0,2.888572986E0
1.640043292E0,-1.694649396E0,1.516398781E0,-1.337202086E0,2.638069608E0
1.650001292E0,-2.790990052E0,8.404472029E-1,-1.755991366E0,3.402863889E0
1.659960292E0,-3.581307321E0,6.381744719E-1,-2.283613701E0,4.295104226E0
1.669918292E0,-4.271450676E0,3.326738262E-1,-2.759509227E0,5.096160704E0
1.679877667E0,-4.955940943E0,-2.899701485E-1,-3.196892653E0,5.904706254E0
1.689835667E0,-5.557384375E0,-1.179220845E0,-3.247598537E0,6.543850484E0
1.699794667E0,-5.575062262E0,-1.286129289E0,-3.389290606E0,6.650017939E0
1.709752667E0,-5.200946295E0,-1.227323841E0,-2.659075112E0,5.968822885E0
1.719710667E0,-4.116584830E0,-1.333610434E0,-1.239693918E0,4.501291866E0
1.729669667E0,-2.609417633E0,-9.285410616E-1,1.636056056E-1,2.774529813E0
1.739627667E0,-6.569194758E-1,-4.291680872E-2,7.649888849E-1,1.009253707E0
1.749586667E0,3.340286261E-1,2.651431632E-1,1.499513776E0,1.558979662E0
1.759544667E0,1.992403650E-1,4.458507782E-1,2.127121745E0,2.182458833E0
1.769503667E0,-4.811129969E-1,1.931632076E0,-3.783803415E-1,2.026288202E0
1.779461667E0,-3.955699861E-1,1.402195058E0,-3.364062794E0,3.665998510E0
1.789419667E0,-8.843504369E-1,1.058836614E0,-1.103563721E0,1.766653208E0
1.799378667E0,9.189443189E-1,1.913721762E0,8.417207265E-1,2.283699504E0
1.809336667E0,4.022323036E-1,-4.329517620E0,7.778983676E-1,4.417198153E0
1.819295667E0,2.965814198E0,6.388562572E-1,-4.386487627E-1,3.065388053E0
1.829253667E0,3.900377600E0,-3.508960891E-1,-1.145219285E0,4.080147142E0
1.839212667E0,3.138747940E0,-2.632252180E0,-7.970924377E-1,4.173229747E0
1.849170667E0,4.444007272E0,-7.569624120E-1,-1.628200468E0,4.793039692E0
1.859129667E0,6.139542521E0,5.041896182E-1,-2.818904074E0,6.774541292E0
1.869087667E0,7.287945616E0,4.678228605E-1,-3.240917509E0,7.989778209E0
1.879045667E0,7.942602219E0,3.817500919E-1,-2.704347764E0,8.399057088E0
1.889004667E0,8.430688021E0,1.765502447E-1,-5.683352916E-1,8.451667024E0
1.898962667E0,8.772417430E0,1.235224307E-1,5.639514366E0,1.042951042E1
1.908921667E0,9.317995394E0,1.015202937E0,9.178437560E0,1.311866576E1
1.918879667E0,9.770945277E0,2.560170629E0,4.798616928E0,1.118269063E1
1.928838667E0,8.000129465E0,2.109688271E0,7.174404967E-1,8.304671994E0
1.938796667E0,4.517828954E0,-1.560224247E-1,-7.643736847E-1,4.584690675E0
1.948754667E0,2.164184906E0,-2.526484235E0,-3.170371656E-1,3.341755745E0
1.958713667E0,2.186642307E0,-3.844331453E0,1.658551025E-1,4.425810300E0
1.968671667E0,3.656683193E0,-3.353379931E0,2.618850946E-1,4.968407465E0
1.978630667E0,5.105395190E0,-2.219348708E0,2.410607843E-1,5.572134155E0
1.988588667E0,5.059057176E0,-1.969287268E0,3.217711079E-1,5.438353473E0
1.998547667E0,3.964812162E0,-2.044262606E0,4.511770070E-1,4.483559498E0
2.008505667E0,3.257889637E0,-2.305116252E0,1.862968223E-1,3.995261234E0
2.018463667E0,2.411663046E0,-3.050850840E0,-8.258116221E-1,3.975647662E0
2.028422667E0,1.895608842E0,-5.106143634E0,-1.123631511E0,5.561347271E0
2.038380667E0,1.555016717E0,-5.454234229E0,-9.490769215E-1,5.750434333E0
2.048339667E0,1.213967339E0,-4.286015505E0,-1.574888625E0,4.724819551E0
2.058297667E0,8.231143016E-1,-3.691676440E0,-2.086701843E0,4.319758867E0
2.068256667E0,3.623887914E-1,-3.407090115E0,-1.631680877E0,3.794992908E0
2.078214667E0,-2.300160152E-1,-2.497490816E0,2.526352380E-1,2.520752330E0
2.088172667E0,-7.350756991E-1,-1.908924707E0,3.518607627E0,4.070003618E0
2.098131667E0,-4.066358417E-1,-1.751521754E0,8.266758406E0,8.460051756E0
2.108089667E0,5.746316099E-1,-2.673552234E0,1.110639788E1,1.143810110E1
2.118048667E0,6.126946449E-2,-3.555480169E0,9.922271218E0,1.054024000E1
2.128006667E0,-1.100886866E0,-3.682180561E0,7.401333067E0,8.339672461E0
2.137965667E0,-2.185339547E0,-2.454111493E0,4.752071922E0,5.777591168E0
2.147923667E0,-3.193888353E0,-5.987572217E-1,3.027645580E0,4.441404145E0
2.157881667E0,-3.842408888E0,1.456383544E0,6.872251560E-1,4.166225811E0
2.167840667E0,-4.369271085E0,3.758690794E0,-1.189668211E0,5.885031584E0
2.177798667E0,-4.717116097E0,5.219452148E0,-1.917020908E0,7.291696247E0
2.187757667E0,-5.281341417E0,6.130805612E0,-1.929985793E0,8.318905564E0
2.197715667E0,-6.123975479E0,6.547807397E0,-1.630350050E0,9.112348691E0
2.207674667E0,-7.230527127E0,5.965705969E0,-6.734403451E-1,9.398068533E0
2.217632667E0,-7.971907294E0,5.262641437E0,-5.296092188E-1,9.566984202E0
2.227591667E0,-7.905907432E0,4.733112910E0,-1.384867419E0,9.317917574E0
2.237549667E0,-7.500176740E0,5.124326720E0,-2.345513495E0,9.381514218E0
2.247507667E0,-7.767156513E0,6.243806562E0,-2.882867936E0,1.037423579E1
2.257466667E0,-8.196528668E0,7.160364633E0,-3.123686682E0,1.132304387E1
2.267424667E0,-8.263283991E0,5.732415513E0,-3.317361667E0,1.058996404E1
2.277383667E0,-7.639933965E0,2.123929457E0,-3.277560840E0,8.580330552E0
2.287341667E0,-5.779500802E0,8.374627841E-1,-2.852467677E0,6.499272674E0
2.297300667E0,-3.601421158E0,2.150935115E0,-1.326433854E0,4.399566228E0
2.307258667E0,5.132042706E-1,3.830569446E-1,4.269350356E-1,7.696653629E-1
2.317216667E0,2.709432503E0,2.796487311E0,-4.929042581E0,6.281466910E0
2.327175667E0,6.897574389E-1,6.664169912E0,-2.661375407E0,7.209011375E0
2.337133667E0,8.360974592E-1,4.952132066E0,1.883969083E0,5.363954742E0
2.347092667E0,9.501579255E-1,3.999003171E0,1.424994521E0,4.350337438E0
2.357050667E0,4.123555881E-1,2.992778049E0,2.264929216E0,3.775799509E0
2.367009667E0,7.032054502E-1,8.362757993E-1,5.953370683E0,6.052807415E0
2.376967667E0,-2.260007322E-2,6.370015204E-2,7.887217392E0,7.887506999E0
2.386925667E0,-3.185937309E-1,4.115404862E-1,6.280775583E0,6.302301918E0
2.396884667E0,-6.966969144E-1,8.890305483E-1,3.324473051E0,3.511108510E0
2.406842667E0,-5.541996843E-1,2.569161308E-1,1.805628672E0,1.906157939E0
2.416801667E0,4.311374295E-1,-7.949280909E-1,8.852362901E-1,1.265477555E0
2.426759667E0,1.907397999E0,-1.386380094E0,-4.546201399E-1,2.401436312E0
2.436718667E0,3.101546785E0,-1.103118456E0,-6.470432362E-1,3.354866277E0
2.446676667E0,4.024421602E0,-4.067162409E-1,-6.030680814E-1,4.089630600E0
2.456634667E0,4.507743092E0,2.426506788E-1,3.396156406E-1,4.527026167E0
2.466593667E0,5.087679881E0,5.792377540E-1,2.009553534E0,5.500755253E0
2.476551667E0,5.812695445E0,7.740155241E-1,3.065776151E0,6.617062171E0
2.486510667E0,6.052904327E0,8.230207461E-1,3.061061833E0,6.832650546E0
2.496468667E0,5.832436815E0,9.931805688E-1,2.972705727E0,6.621231470E0
2.506427667E0,5.174479458E0,1.928324014E-1,4.130626334E0,6.623782598E0
2.516385667E0,4.832086390E0,-9.320859361E-1,4.805059975E0,6.877968046E0
2.526343667E0,5.634771105E0,-1.308487580E0,3.773835082E0,6.906852856E0
2.536302667E0,6.169061605E0,-2.019676234E0,2.183234550E0,6.848571112E0
2.546260667E0,5.169384195E0,-3.522121804E0,4.913719368E-1,6.274497696E0
2.556219667E0,3.612436727E0,-5.076055616E0,-6.345743412E-1,6.262485475E0
2.566177667E0,2.384638385E0,-6.267787163E0,-1.617178466E0,6.898327503E0
2.576136667E0,1.864784660E0,-6.356329796E0,-2.287589223E0,7.008096372E0
2.586094667E0,1.637069525E0,-5.492430580E0,-2.668718340E0,6.322092050E0
2.596052667E0,1.668733951E0,-3.595328067E0,-3.004799047E0,4.973919402E0
2.606011667E0,8.829821885E-1,-2.165984679E0,-3.106001194E0,3.888237466E0
2.615969667E0,-9.667757124E-1,-2.191660095E0,-2.465840130E0,3.437789522E0
2.625928667E0,-3.498886723E0,-2.151923295E0,-1.731265830E0,4.457607378E0
2.635886667E0,-5.773698610E0,-2.233591940E0,-4.115270376E-1,6.204343889E0
2.645845667E0,-6.222593449E0,-3.611777454E0,5.988975549E-1,7.219714945E0
2.655803667E0,-4.615587968E0,-4.549849769E0,-2.463247767E-1,6.485789166E0
2.665761667E0,-2.866399838E0,-4.643318973E0,-3.898470238E-1,5.470707433E0
2.675720417E0,-1.962302184E0,-5.653012079E0,1.308068627E0,6.125211748E0
2.685678417E0,-1.404322860E0,-4.932897066E0,3.305892938E0,6.102009856E0
2.695637417E0,-2.730768993E0,-2.995437655E0,4.952997454E0,6.400150765E0
2.705595417E0,-1.981089288E-1,-3.130748072E0,5.023053530E0,5.922153105E0
2.715554417E0,2.509971113E0,-1.858819623E0,-2.803383956E-1,3.135881853E0
2.725512417E0,5.538587916E-1,1.792502258E0,7.914545524E-1,2.036227937E0
2.735470417E0,-3.372498572E-2,3.993852651E0,3.529989232E0,5.330367750E0
2.745429417E0,1.037712963E0,5.371182716E0,3.277626328E0,6.377247550E0
2.755387417E0,1.349971821E0,5.707282426E0,1.732552217E0,6.115327775E0
2.765346417E0,5.039188921E-1,5.591809857E0,6.375908466E-1,5.650556948E0
2.775304417E0,7.104027879E-1,5.564733156E0,-6.240383164E-1,5.644497412E0
2.785263417E0,7.570974827E-2,5.941458735E0,-3.450716776E0,6.871252443E0
2.795221417E0,-2.715511853E0,5.682127120E0,-5.934969496E0,8.653579383E0
2.805179417E0,-5.708848895E0,7.997957225E0,-5.627802393E0,1.132388782E1
2.815138417E0,-8.748270768E0,8.936593797E0,-3.967319448E0,1.312000662E1
2.825096417E0,-1.024043693E1,8.775994756E0,-2.038103149E0,1.363959299E1
2.835055417E0,-1.094428967E1,8.276140264E0,-8.156737196E-1,1.374544643E1
2.845013417E0,-1.080903889E1,7.230414276E0,-8.433847710E-1,1.303171172E1
2.854972417E0,-1.102382584E1,7.207212524E0,-6.687879202E0,1.477147172E1
2.864930417E0,-1.056682149E1,6.166083033E0,-1.253636253E1,1.751681141E1
2.874889417E0,-6.914673986E0,1.136352568E0,-1.282655049E1,1.461589583E1
2.884847417E0,-4.700278455E0,-3.727450874E0,-1.136331284E1,1.284956755E1
2.894805417E0,-4.995842927E0,-5.928202513E0,-6.788077675E0,1.030436947E1
2.904764417E0,-5.445057608E0,-5.104705803E0,-1.869747777E0,7.694324561E0
2.914722417E0,-1.948212733E0,-2.161099915E0,-6.427754997E-1,2.979772817E0
2.924681417E0,2.204651731E0,7.585885227E-2,-4.163182461E-1,2.244897482E0
2.934639417E0,4.291991944E0,5.886286747E-1,6.752280436E0,8.022528881E0
2.944597417E0,2.691280407E0,-3.578870786E0,3.658722819E1,3.686023023E1
2.954556417E0,1.011239110E0,-9.413531882E-1,9.789642334E0,9.886649958E0
2.964514417E0,3.567677461E0,1.719010651E0,-5.731260688E0,6.966395708E0
2.974473417E0,5.294800538E0,1.042840387E0,-2.023437163E0,5.763395420E0
2.984431417E0,3.482260750E0,9.794232398E-1,1.997537944E0,4.132259388E0
2.994390417E0,1.499385138E0,1.016318001E0,5.889443074E0,6.161704131E0
3.004348417E0,1.146156594E0,1.021492787E0,5.249408019E0,5.469315039E0
3.014306417E0,2.339306091E0,8.422879064E-1,2.264776311E0,3.363185044E0
3.024265417E0,2.927959324E0,8.253654796E-1,7.619056481E-1,3.136028411E0
3.034223417E0,3.144338463E0,5.886836386E-1,1.533625994E-1,3.202644670E0
3.044182417E0,3.540724720E0,1.520469028E-1,4.167281359E-1,3.568404706E0
3.054140417E0,3.647859744E0,2.818691236E-1,1.233777705E0,3.861157643E0
3.064099417E0,3.785116115E0,2.684146804E-1,2.384256561E0,4.481498611E0
3.074057417E0,3.867465377E0,2.015634638E-1,3.472924501E0,5.201838219E0
3.084015417E0,3.496068365E0,4.190822250E-1,3.602088910E0,5.037178619E0
3.093974417E0,3.138173743E0,5.400751501E-1,3.046075419E0,4.406630353E0
3.103932417E0,2.780411269E0,5.149227673E-1,2.599508357E0,3.840999346E0
3.113891417E0,2.397218669E0,5.529571509E-1,2.125570478E0,3.251225741E0
3.123849417E0,1.882649951E0,1.000372644E0,1.240550097E0,2.466592955E0
3.133808417E0,1.337083973E0,1.893714929E0,2.976362868E-1,2.337207124E0
3.143766417E0,1.202590411E0,2.413990238E0,-5.070698105E-1,2.744210699E0
3.153724417E0,1.230785100E0,2.823600558E0,-1.070988883E0,3.261068730E0
3.163683417E0,1.326107872E0,3.245918047E0,-1.208245838E0,3.708693040E0
3.173641417E0,5.616399738E-1,4.330798745E0,-1.271002250E0,4.548263839E0
3.183600417E0,-8.351230207E-1,5.790121685E0,-8.812609144E-1,5.916042628E0
3.193558417E0,-9.996923205E-1,6.219371633E0,-5.966488619E-1,6.327397420E0
3.203517417E0,-6.786272639E-1,6.365875960E0,-3.743785071E-1,6.412883202E0
3.213475417E0,-1.293867787E0,6.785361643E0,-5.699409735E-1,6.931093650E0
3.223433417E0,-1.382130630E0,7.411625921E0,-5.900654818E-1,7.562450737E0
3.233392417E0,-1.264842354E0,7.862446833E0,9.357498014E-1,8.018324268E0
3.243350417E0,-2.459313176E0,7.356179114E0,3.150849338E0,8.371943860E0
3.253309417E0,-3.707082099E0,4.193735332E0,8.607605470E0,1.026746053E1
3.263267417E0,-3.114643963E0,-9.723118562E-1,9.256662780E0,9.814897003E0
3.273226417E0,-1.501316034E0,-6.481566045E0,4.653065697E0,8.118846508E0
3.283184417E0,-3.662973627E0,-1.124961958E1,1.386297794E0,1.191189061E1
3.293142417E0,-6.267508251E0,-2.023129365E1,-1.320407714E0,2.122098912E1
3.303101417E0,-6.532426296E0,-2.870058090E1,-3.183775594E0,2.960628927E1
3.313059417E0,-5.389007953E0,-3.160878482E1,-1.659239974E0,3.210778351E1
3.323018417E0,-1.286605252E0,-2.842226045E1,-2.116984427E-1,2.845215384E1
3.332976417E0,3.012138180E0,-1.929690157E1,-4.120123565E0,1.996043098E1
3.342935417E0,4.099724676E0,-9.944305866E0,-6.556577636E0,1.259705013E1
3.352893417E0,3.499948285E0,-4.473739779E0,-6.453835040E0,8.597439871E0
3.362851417E0,2.594060799E0,-1.275553722E0,-5.450241165E0,6.169385503E0
3.372810417E0,8.738105384E-1,1.419395812E0,-4.339578339E0,4.648673950E0
3.382768417E0,-7.794622055E-1,4.256499345E0,-3.592027313E0,5.623878397E0
3.392727417E0,-1.532729762E0,6.839544867E0,-3.053033606E0,7.645236995E0
3.402685417E0,-1.823380526E0,7.591621930E0,-1.708255867E0,7.992219853E0
3.412644417E0,-3.243230375E0,7.530865266E0,3.365185167E0,8.863235647E0
3.422602417E0,-4.642906160E0,7.219674110E0,3.513519672E0,9.274971286E0
3.432560417E0,-4.775276890E0,6.637237052E0,-4.711967039E-1,8.190128900E0
3.442519417E0,-5.007400534E0,6.062027153E0,-2.332849596E0,8.201488922E0
3.452477417E0,-5.394110234E0,5.266065567E0,-3.004442659E0,8.115081482E0
3.462436417E0,-5.339472681E0,4.651192249E0,-2.835647284E0,7.627873450E0
3.472394417E0,-4.700460303E0,3.962139984E0,-2.548087943E0,6.654745110E0
3.482353417E0,-4.194596627E0,3.109891346E0,-2.525609199E0,5.800410923E0
3.492311417E0,-3.989027821E0,2.237599622E0,-2.629678528E0,5.275832085E0
3.502269417E0,-3.995134360E0,1.490698514E0,-2.858419265E0,5.133599255E0
3.512228417E0,-4.152946618E0,8.284621650E-1,-3.096354457E0,5.246020024E0
3.522186417E0,-4.401752368E0,4.354871732E-1,-3.285563924E0,5.509991224E0
3.532145417E0,-4.663677809E0,4.047542077E-1,-3.404027928E0,5.788015446E0
3.542103417E0,-4.740221078E0,7.952534884E-1,-3.351979230E0,5.859853986E0
3.552062417E0,-4.503512924E0,1.338427663E0,-3.194761927E0,5.681506934E0
3.562020417E0,-4.063726586E0,1.778362228E0,-2.945299534E0,5.324587808E0
3.571978417E0,-3.535649337E0,1.898515493E0,-2.476690516E0,4.715842791E0
3.581937417E0,-2.839736534E0,1.575594823E0,-1.507662164E0,3.580453579E0
3.591895417E0,-1.880364859E0,9.450468743E-1,5.742266902E-1,2.181426572E0
3.601854417E0,-1.664167276E-1,2.750922006E-1,6.104344622E0,6.112805699E0
3.611812417E0,2.651847661E0,-6.712042236E-1,1.467411861E1,1.492690752E1
3.621771417E0,5.339256334E0,-3.248249917E0,1.560467725E1,1.680966204E1
3.631729417E0,6.470176839E0,-4.216010885E0,8.708358843E0,1.163930624E1
3.641687417E0,6.717039267E0,-4.711267712E0,-3.203046262E-1,8.210801119E0
3.651646417E0,7.255278976E0,-4.319968532E0,-4.618720906E0,9.624644614E0
3.661604417E0,8.709035366E0,-3.155280942E0,-2.607782167E0,9.623077609E0
3.671563417E0,1.117296492E1,-1.322423249E0,2.311082166E0,1.148586301E1
3.681521667E0,1.195846350E1,1.439291548E0,5.512474251E0,1.324627426E1
3.691480667E0,9.488796072E0,2.934930959E0,4.131739644E0,1.075743199E1
3.701438667E0,5.583703862E0,2.074374012E0,6.524814391E-1,5.992203968E0
3.711396667E0,2.792917879E0,2.440721369E-1,-1.945259743E0,3.412330135E0
3.721355667E0,1.138448794E0,-1.902869330E0,-2.874711070E0,3.630556580E0
3.731313667E0,-3.715379298E-2,-4.613560739E0,-2.308587305E0,5.159059841E0
3.741272667E0,-1.088953868E0,-7.702597405E0,-2.846893819E-1,7.784399486E0
3.751230667E0,-1.641025166E0,-9.240778819E0,3.085504071E-1,9.390429177E0
3.761189667E0,-1.993714304E0,-8.068665850E0,-5.192204708E-1,8.327535963E0
3.771147667E0,-2.497603667E0,-5.824903262E0,-1.043805177E0,6.423165212E0
3.781105667E0,-3.095428258E0,-3.225207210E0,-1.517257737E0,4.720774162E0
3.791064667E0,-3.594959984E0,-9.302142423E-1,-1.800130243E0,4.126682047E0
3.801022667E0,-3.991981834E0,1.218940396E0,-1.671892910E0,4.496327452E0
3.810981667E0,-4.376451466E0,3.155751643E0,-1.484330604E0,5.596010473E0
3.820939667E0,-4.803442927E0,4.523125947E0,-1.372779909E0,6.739158476E0
3.830898667E0,-4.930679802E0,4.959298999E0,-1.778366321E0,7.215873934E0
3.840856667E0,-4.680069601E0,4.379952194E0,-2.599554550E0,6.916987534E0
3.850814667E0,-4.240830562E0,3.241771787E0,-3.201444125E0,6.224385324E0
3.860773667E0,-3.690747902E0,1.790438483E0,-3.673383425E0,5.506454016E0
3.870731667E0,-3.086762100E0,2.947312438E-1,-4.046532848E0,5.097979488E0
3.880690667E0,-2.445642385E0,-9.602718544E-1,-4.219209897E0,4.970414557E0
3.890648667E0,-1.730799807E0,-1.756008323E0,-4.208528788E0,4.877596515E0
3.900606667E0,-1.028145749E0,-2.010508969E0,-4.031782077E0,4.621092588E0
3.910565667E0,-4.000138700E-1,-1.830173237E0,-3.798792168E0,4.235607053E0
3.920523667E0,2.136046350E-2,-1.392156558E0,-3.517342874E0,3.782890039E0
3.930482667E0,3.289304388E-1,-9.588328546E-1,-3.099881498E0,3.261413953E0
3.940440667E0,6.072988343E-1,-5.877562702E-1,-2.331503420E0,2.479955142E0
3.950399667E0,1.002772926E0,-5.470187187E-2,2.056912034E0,2.288980767E0
3.960357667E0,1.557217901E0,1.172676641E0,1.004341383E1,1.023084843E1
3.970315667E0,3.807104570E-1,1.390542142E0,1.681164547E0,2.214692334E0
3.980274667E0,-4.162498337E-1,9.192197227E-1,-2.421570568E0,2.623401006E0
3.990232667E0,-5.338580981E-1,9.942435926E-1,-2.112353432E0,2.394903299E0
4.000191667E0,-6.028607976E-1,1.400011123E0,-1.074488441E0,1.864939060E0
4.010149667E0,-6.439599994E-1,1.761837412E0,3.536781577E-1,1.908885483E0
4.020108667E0,-5.053055593E-1,1.729357299E0,6.594928354E-1,1.918577904E0
4.030066667E0,-1.734956592E-1,1.610420254E0,3.914535463E-1,1.666370313E0
4.040024667E0,2.329533640E-1,1.548673657E0,3.818050557E-1,1.611965405E0
4.049983667E0,6.004453129E-1,1.456275955E0,3.406014812E-1,1.611609010E0
4.059941667E0,8.872667357E-1,1.320298371E0,3.260138476E-1,1.623796501E0
4.069900667E0,1.109095480E0,1.190204254E0,2.843126750E-1,1.651518285E0
4.079858667E0,1.283685738E0,1.145667767E0,2.838659477E-1,1.743841616E0
4.089817667E0,1.408786916E0,1.146451294E0,5.972954178E-1,1.912012804E0
4.099775667E0,1.438086729E0,1.214266716E0,1.162048742E0,2.211988783E0
4.109733667E0,1.309496517E0,1.228857273E0,1.871561583E0,2.593764462E0
4.119692667E0,1.013874157E0,1.171745764E0,2.523947128E0,2.961627601E0
4.129650667E0,7.296044594E-1,1.200159724E0,3.035339931E0,3.344546984E0
4.139609667E0,5.891318277E-1,1.360709648E0,3.323121175E0,3.638920361E0
4.149567667E0,5.512874785E-1,1.662737632E0,3.267643962E0,3.707574865E0
4.159525667E0,6.076522985E-1,1.828936551E0,2.318991694E0,3.015289820E0
4.169484667E0,8.299844876E-1,1.544165454E0,6.717773969E-1,1.877393424E0
4.179442667E0,1.125876404E0,9.017406410E-1,-5.724470901E-1,1.551911573E0
4.189401667E0,1.327357129E0,3.266149414E-1,-9.645730662E-1,1.673007911E0
4.199359667E0,1.403920864E0,3.896818399E-2,-2.447561149E-1,1.425628937E0
4.209318667E0,1.573670796E0,-8.752404749E-2,1.591825085E0,2.240090922E0
4.219276667E0,2.045006664E0,-1.855257207E-1,2.466051507E0,3.209031331E0
4.229234667E0,2.707585075E0,-1.346181071E-1,1.748416737E0,3.225848735E0
4.239193667E0,3.212513197E0,-2.895307302E-1,1.673966479E0,3.634038092E0
4.249151667E0,3.560840312E0,-7.119815361E-1,2.060245385E0,4.175058380E0
4.259110667E0,3.608220592E0,-1.326984077E0,1.992845700E0,4.330309061E0
4.269068667E0,3.330716415E0,-2.074341268E0,1.773891886E0,4.306188101E0
4.279027667E0,2.782230923E0,-2.969543552E0,3.267931645E0,5.219039668E0
4.288985667E0,2.200746084E0,-3.561146706E0,5.199521914E0,6.675333498E0
4.298943667E0,2.055816412E0,-3.120852537E0,3.460885084E0,5.093508343E0
4.308902667E0,2.189432306E0,-2.358973786E0,7.552016692E-1,3.305858543E0
4.318860667E0,2.183336291E0,-1.638635994E0,-8.271050262E-1,2.852400394E0
4.328819667E0,1.975761305E0,-9.458824414E-1,-1.356812478E0,2.576677401E0
4.338777667E0,1.770768157E0,-4.866479713E-1,-8.213197180E-1,2.011718716E0
4.348735667E0,1.991683858E0,-1.974248046E-1,3.366979531E-1,2.029568096E0
4.358694667E0,2.363583146E0,2.689204645E-1,1.281122611E0,2.701873174E0
4.368652667E0,2.245736607E0,5.459632963E-1,2.063686472E0,3.098420676E0
4.378611667E0,1.285376752E0,6.150686145E-3,2.002871336E0,2.379858150E0
4.388569667E0,3.703369117E-1,-1.039964726E0,8.265717602E-1,1.379092794E0
4.398528667E0,1.289574176E-2,-1.998880026E0,1.868617364E-1,2.007636662E0
4.408486667E0,-1.340912730E-1,-2.745840776E0,2.710617149E-1,2.762443934E0
4.418444667E0,4.979079545E-2,-3.454183005E0,2.322490668E-1,3.462340102E0
4.428403667E0,4.483495858E-1,-4.319518297E0,-3.074163397E-1,4.353591675E0
4.438361667E0,5.963756508E-1,-5.423086111E0,-5.803127646E-1,5.486555366E0
4.448320667E0,5.069313776E-1,-6.952986698E0,4.071884036E-2,6.971560906E0
4.458278667E0,3.284930670E-1,-8.416992672E0,1.047164987E0,8.488240563E0
4.468237667E0,5.948197067E-2,-8.572918033E0,1.429396305E0,8.691469122E0
4.478195667E0,-2.829952973E-1,-6.769261335E0,4.582799122E-1,6.790655773E0
4.488153667E0,-7.776989776E-1,-4.473842690E0,-8.226751757E-1,4.614854121E0
4.498112667E0,-1.195201285E0,-2.659290875E0,-1.648701098E0,3.349410303E0
4.508070667E0,-1.613764277E0,-1.482804773E0,-2.042078378E0,2.995501501E0
4.518029667E0,-2.138921426E0,-6.191558182E-1,-2.419932471E0,3.288527323E0
4.527987667E0,-2.534576197E0,2.109084839E-1,-2.251323330E0,3.396618262E0
4.537946667E0,-2.834989180E0,8.901719248E-1,-1.613787081E0,3.381401847E0
4.547904667E0,-3.012867912E0,1.470554271E0,-9.155429935E-1,3.475359247E0
4.557862667E0,-3.139743136E0,1.959746366E0,-5.225644934E-1,3.737869237E0
4.567821667E0,-3.202892480E0,2.219111311E0,-6.071909532E-1,3.943558812E0
4.577779667E0,-3.302959975E0,2.353584407E0,-8.841566017E-1,4.150980252E0
4.587738667E0,-3.480288484E0,2.373526336E0,-1.224867718E0,4.387064637E0
4.597696667E0,-3.662219337E0,2.328918512E0,-1.526458623E0,4.600629070E0
4.607654667E0,-3.826065921E0,2.230602844E0,-1.758169746E0,4.765032039E0
4.617613667E0,-4.059595528E0,2.066762692E0,-1.971961200E0,4.963915274E0
4.627571667E0,-4.319557473E0,1.940430089E0,-2.169891788E0,5.208865142E0
4.637530667E0,-4.518558687E0,1.928845001E0,-2.339627103E0,5.441660650E0
4.647488667E0,-4.640321106E0,2.019710732E0,-2.482956977E0,5.637099144E0
4.657447667E0,-4.678389988E0,2.232454657E0,-2.624200272E0,5.810130269E0
4.667405667E0,-4.616108370E0,2.527298167E0,-2.737751153E0,5.932198066E0
4.677364042E0,-4.403036417E0,2.816455845E0,-2.849752815E0,5.953170947E0
4.687323042E0,-4.025454220E0,3.038835981E0,-2.957552083E0,5.846872679E0
4.697281042E0,-3.623742319E0,3.253471481E0,-3.015232526E0,5.727845341E0
4.707240042E0,-3.243782644E0,3.462887755E0,-3.009663346E0,5.618878082E0
4.717198042E0,-2.895347064E0,3.650278738E0,-2.869870745E0,5.472086218E0
4.727156042E0,-2.573330957E0,3.759878363E0,-2.613272995E0,5.252419754E0
4.737115042E0,-2.201493065E0,3.746540279E0,-2.224050162E0,4.881550461E0
4.747073042E0,-1.631652079E0,3.490979533E0,-1.488510778E0,4.130967314E0
4.757032042E0,-6.854860479E-1,2.898077713E0,-9.848348379E-2,2.979671886E0
4.766990042E0,7.432354885E-1,1.899825270E0,3.168931267E0,3.768800926E0
4.776949042E0,2.761228309E0,6.956145948E-1,8.602464598E0,9.061493177E0
4.786907042E0,4.493515647E0,-1.262730194E0,9.711331744E0,1.077479163E1
4.796865042E0,7.099023832E0,-4.105114932E0,1.045542268E1,1.328773763E1
4.806824042E0,8.846892246E0,-5.644112617E0,9.533281689E0,1.417769267E1
4.816782042E0,8.144786072E0,-6.238911273E0,3.672156095E0,1.089707688E1
4.826741042E0,7.357045671E0,-5.353730532E0,-4.546297878E-2,9.098935020E0
4.836699042E0,8.015491270E0,-3.353400981E0,1.153363287E-1,8.689459184E0
4.846658042E0,8.365609095E0,-6.340247029E-1,1.391383556E0,8.504196085E0
4.856616042E0,7.248683901E0,2.897875984E0,2.241780089E0,8.121987533E0
4.866574042E0,5.251486119E0,5.392817999E0,2.385903722E0,7.896399749E0
4.876533042E0,2.656029882E0,5.193425606E0,1.808319268E0,6.107060082E0
4.886491042E0,9.677527821E-1,2.825704971E0,3.872616774E-1,3.011830944E0
4.896450042E0,2.590673214E-1,3.221476686E-1,-1.136966671E0,1.209788498E0
4.906408042E0,-1.802182031E-1,-3.121512102E0,-1.052448678E0,3.299085423E0
4.916366042E0,-1.343672615E-1,-8.150640305E0,-6.145710164E-1,8.174881618E0
4.926325042E0,1.730945402E-1,-1.303337820E1,-1.968662493E-1,1.303601417E1
4.936283042E0,3.179897135E-1,-1.473181659E1,4.670729551E-1,1.474264884E1
4.946242042E0,-1.537922966E-1,-1.312853579E1,1.298468814E0,1.319348799E1
4.956200042E0,-1.161915425E0,-9.150368001E0,4.636488256E-1,9.235488739E0
4.966159042E0,-2.315385717E0,-4.120555090E0,-1.468275611E0,4.949325059E0
4.976117042E0,-3.301780007E0,-8.819080549E-1,-1.831727134E0,3.877465322E0
4.986075042E0,-4.153805866E0,1.800965810E0,-1.763710860E0,4.858832887E0
4.996034042E0,-4.814398563E0,4.154052034E0,-1.801881484E0,6.609187447E0
5.005992042E0,-5.271082478E0,5.968706760E0,-1.750246915E0,8.153105859E0
5.015951042E0,-5.486095122E0,7.227155623E0,-1.768344778E0,9.244244769E0
5.025909042E0,-5.465124668E0,7.653156273E0,-2.030515802E0,9.620882652E0
5.035868042E0,-5.198534904E0,6.823761477E0,-2.734201893E0,9.003574059E0
5.045826042E0,-4.808119530E0,5.124718484E0,-3.696584008E0,7.940118783E0
5.055784042E0,-4.387014754E0,3.336076850E0,-4.740580974E0,7.269691545E0
5.065743042E0,-3.925574129E0,1.341299815E0,-5.617193205E0,6.982984816E0
5.075701042E0,-3.512314269E0,-6.880284172E-1,-6.089564615E0,7.063464577E0
5.085660042E0,-3.153709503E0,-2.437475579E0,-5.910213554E0,7.128660118E0
5.095618042E0,-2.692590768E0,-3.628933477E0,-5.268727219E0,6.941087071E0
5.105576042E0,-2.140903924E0,-3.927511604E0,-4.382482284E0,6.262185560E0
5.115535042E0,-1.563602183E0,-3.457824651E0,-3.473539628E0,5.144597229E0
5.125493042E0,-1.013032158E0,-2.717221579E0,-2.826082116E0,4.049230469E0
5.135452042E0,-5.505656397E-1,-2.033676807E0,-2.385557567E0,3.182742337E0
5.145410042E0,-1.746265107E-1,-1.341644216E0,-2.016826885E0,2.428599248E0
5.155369042E0,1.058565304E-1,-4.884237707E-1,-1.507099954E0,1.587801516E0
5.165327042E0,3.224815446E-1,3.849830174E-1,-9.211301543E-2,5.105791593E-1
5.175285042E0,9.639760655E-1,2.058502330E0,9.880023916E0,1.013812380E1
5.185244042E0,4.660283500E-1,3.161718142E0,8.386453834E0,8.974756372E0
5.195202042E0,-6.460071096E-1,1.989364268E0,-5.631067479E-1,2.166098932E0
5.205161042E0,-6.654531947E-1,1.621376182E0,-1.621931083E0,2.387959195E0
5.215119042E0,-4.291268644E-1,1.781704497E0,-1.835031688E0,2.593445985E0
5.225077042E0,-7.532792509E-2,1.932563830E0,-1.854616352E0,2.679566955E0
5.235036042E0,3.723644337E-1,2.100906923E0,-1.600968815E0,2.667501887E0
5.244994042E0,8.993558541E-1,2.179335042E0,-1.053284756E0,2.582198860E0
5.254953042E0,1.506634223E0,2.115909709E0,1.543453702E-1,2.602084371E0
5.264911042E0,2.405879273E0,1.959945756E0,3.771079874E0,4.883716398E0
5.274870042E0,3.206041498E0,1.689826612E0,7.021717794E0,7.901818579E0
5.284828042E0,2.635634502E0,1.248381711E0,3.372767836E0,4.458765412E0
5.294786042E0,2.143600368E0,7.717739940E-1,1.375845311E0,2.661504829E0
5.304745042E0,2.059981091E0,4.662218928E-1,1.078095589E0,2.371323480E0
5.314703042E0,2.172126009E0,2.931916720E-1,1.204329958E0,2.500900519E0
5.324662042E0,2.250491855E0,2.460789013E-1,1.626963051E0,2.787880411E0
5.334620042E0,2.042240639E0,3.071647632E-1,2.302198345E0,3.092768054E0
5.344578042E0,1.586284995E0,4.509109586E-1,3.159337156E0,3.563850732E0
5.354537042E0,1.142706445E0,7.189251047E-1,3.181246673E0,3.455859042E0
5.364495042E0,1.204667342E0,8.696119452E-1,2.053936093E0,2.534975703E0
5.374454042E0,1.808504917E0,7.580406386E-1,7.911725704E-1,2.114537699E0
5.384412042E0,2.223870067E0,5.682581449E-1,4.615673630E-1,2.341273121E0
5.394371042E0,2.188859864E0,5.345898771E-1,1.435879552E0,2.671824082E0
5.404329042E0,2.269477180E0,7.666576803E-1,2.390416603E0,3.384136848E0
5.414287042E0,2.385356130E0,1.026702656E0,1.449148492E0,2.973898715E0
5.424246042E0,2.555456604E0,1.122180086E0,2.455047047E-1,2.801770719E0
5.434204042E0,2.904494155E0,9.159791958E-1,-1.617279916E-1,3.049796736E0
5.444163042E0,3.314191599E0,4.404005885E-1,-1.434791239E-1,3.346401783E0
5.454121042E0,3.610847454E0,-3.148205227E-1,2.663558757E-1,3.634319297E0
5.464079042E0,3.561772358E0,-1.368750154E0,1.242168460E0,4.012814697E0
5.474038042E0,3.182143636E0,-2.525314792E0,2.678480852E0,4.865954438E0
5.483996042E0,2.746894444E0,-3.445866510E0,3.979094571E0,5.937391574E0
5.493955042E0,2.394685363E0,-3.523930932E0,4.570845659E0,6.248618827E0
5.503913042E0,2.337751901E0,-2.843841280E0,3.850616040E0,5.327265815E0
5.513872042E0,2.368386926E0,-2.423766198E0,1.536717563E0,3.720940752E0
5.523830042E0,2.082310146E0,-2.320168154E0,-1.828305928E-1,3.122918960E0
5.533788042E0,1.617770789E0,-2.278980952E0,-6.224982329E-1,2.863291909E0
5.543747042E0,1.263248257E0,-2.248763711E0,-3.527742147E-1,2.603302524E0
5.553705042E0,1.290359165E0,-1.941900664E0,-1.373152815E-2,2.331564607E0
5.563664042E0,1.666110013E0,-1.390464959E0,-2.199055215E-1,2.181209255E0
5.573622042E0,1.918600971E0,-1.121126418E0,-6.643606424E-1,2.319338094E0
5.583580042E0,1.526186143E0,-1.317570645E0,-2.768867111E-1,2.035166528E0
5.593539042E0,5.496236533E-1,-1.724711686E0,1.018717114E0,2.077137722E0
5.603497042E0,-5.978169894E-1,-2.143100431E0,3.025827096E0,3.755781440E0
5.613456042E0,-1.421946660E0,-2.880533727E0,4.641615679E0,5.644820898E0
5.623414042E0,-9.065482217E-1,-3.153396969E0,2.224783695E0,3.964265962E0
5.633373042E0,-1.313451281E-1,-3.500446175E0,-5.608101077E-1,3.547517857E0
5.643331042E0,-4.757908612E-2,-4.177583569E0,-1.421889650E0,4.413189144E0
5.653289042E0,-2.819191173E-1,-5.224608223E0,-9.575331648E-1,5.319105116E0
5.663248042E0,-4.527961010E-1,-6.352630847E0,2.190938549E-1,6.372514818E0
5.673206042E0,-5.525987166E-1,-6.495972415E0,5.970602135E-1,6.546717029E0
5.683168708E0,-6.750727415E-1,-5.397937236E0,-4.033442979E-1,5.454918536E0
5.693126708E0,-8.026525551E-1,-3.622866991E0,-1.274572560E0,3.923512656E0
5.703084708E0,-9.370689332E-1,-2.269082201E0,-1.747925717E0,3.013648375E0
5.713043708E0,-1.202976328E0,-1.573097477E0,-2.104466854E0,2.889735015E0
5.723001708E0,-1.585347978E0,-1.238002319E0,-1.975689969E0,2.819455410E0
5.732960708E0,-1.894280940E0,-9.375618535E-1,-1.564794723E0,2.629810836E0
5.742918708E0,-2.169329286E0,-4.864310396E-1,-1.183712383E0,2.518686109E0
5.752876708E0,-2.396459700E0,-2.732345402E-2,-7.772963968E-1,2.519514905E0
5.762835708E0,-2.618272072E0,6.866262549E-1,-6.855968526E-1,2.792283528E0
5.772793708E0,-2.840286757E0,1.405993994E0,-1.013525956E0,3.327353729E0
5.782752708E0,-3.094389793E0,2.016658486E0,-1.498805386E0,3.986047820E0
5.792710708E0,-3.343033867E0,2.505588625E0,-1.943995721E0,4.607924605E0
5.802669708E0,-3.566479951E0,2.824459514E0,-2.282131139E0,5.089741970E0
5.812627708E0,-3.757551756E0,3.001214411E0,-2.545042713E0,5.440930578E0
5.822585708E0,-3.969089985E0,3.123265682E0,-2.651780126E0,5.704419486E0
5.832544708E0,-4.164085271E0,3.176632635E0,-2.632436075E0,5.861767714E0
5.842502708E0,-4.321406947E0,3.158988077E0,-2.535762304E0,5.923162512E0
5.852461708E0,-4.427557885E0,3.093071830E0,-2.441989338E0,5.927366540E0
5.862419708E0,-4.499245918E0,3.097464259E0,-2.394310264E0,5.964077490E0
5.872377708E0,-4.514245781E0,3.182582177E0,-2.417005647E0,6.029026503E0
5.882336708E0,-4.435588451E0,3.267114204E0,-2.483576782E0,6.042899450E0
5.892294708E0,-4.239544759E0,3.350229451E0,-2.595559148E0,5.994556233E0
5.902253708E0,-3.960858859E0,3.545794256E0,-2.652514244E0,5.941118718E0
5.912211708E0,-3.653904011E0,3.781858631E0,-2.599648690E0,5.866143754E0
5.922170708E0,-3.349966326E0,4.002928407E0,-2.416073601E0,5.751792926E0
5.932128708E0,-2.944867133E0,4.154378309E0,-2.129262410E0,5.519498163E0
5.942086708E0,-2.286858906E0,4.107244488E0,-1.606394154E0,4.967865046E0
5.952045708E0,-1.205092435E0,3.614976173E0,-4.351220146E-1,3.835313765E0
5.962003708E0,3.874312466E-1,2.623805877E0,2.199851460E0,3.445839041E0
5.971962708E0,2.389481633E0,1.433287042E0,5.306790254E0,5.993826576E0
5.981920708E0,4.043911541E0,-4.222087312E-1,5.904542924E0,7.169038144E0
5.991878708E0,6.986635085E0,-3.672228600E0,9.471001825E0,1.232875534E1
6.001837708E0,9.863741759E0,-6.003673695E0,1.298811724E1,1.737897261E1
6.011795708E0,9.474525942E0,-6.874267972E0,6.253459146E0,1.327132071E1
6.021754708E0,8.482065750E0,-6.420386043E0,-1.016048737E-1,1.063847357E1
6.031712708E0,8.452412181E0,-4.880032974E0,-8.203520769E-1,9.794435718E0
6.041670708E0,8.175220830E0,-3.164694960E0,4.326600444E-1,8.777056712E0
6.051629708E0,6.499293634E0,-9.047630668E-2,1.717978617E0,6.723128307E0
6.061587708E0,3.203684778E0,2.114033337E0,3.323360910E0,5.077150859E0
6.071546708E0,3.147339839E-1,2.026922103E0,3.286774882E0,3.874320562E0
6.081504708E0,-1.238050851E0,8.326382464E-1,1.620108214E0,2.202454763E0
6.091463708E0,-1.397886829E0,-1.473909988E0,1.788233498E-1,2.039234178E0
6.101421708E0,-6.420552689E-1,-5.111787951E0,-1.227573517E0,5.296182376E0
6.111379708E0,-1.155012202E-1,-9.378877773E0,-2.124148436E0,9.617104314E0
6.121338708E0,8.565176904E-2,-1.169636673E1,-2.282723755E0,1.191734697E1
6.131296708E0,-7.882456005E-2,-1.117870922E1,-1.523947244E0,1.128238310E1
6.141255708E0,-5.553211802E-1,-8.886894802E0,-1.094875197E0,8.971289347E0
6.151213708E0,-1.392582235E0,-4.845701632E0,-1.651655989E0,5.305476142E0
6.161171708E0,-2.407530819E0,-1.328682109E0,-2.088327808E0,3.452928296E0
6.171130708E0,-3.351843575E0,1.612464441E0,-2.147617990E0,4.295015711E0
6.181088708E0,-4.038030412E0,4.066456650E0,-2.149898404E0,6.120769759E0
6.191047708E0,-4.499829178E0,5.784386151E0,-2.222546258E0,7.658152365E0
6.201005708E0,-4.702549514E0,6.970251771E0,-2.326923004E0,8.724273743E0
6.210964708E0,-4.517500633E0,7.516490471E0,-2.682969174E0,9.170810464E0
6.220922708E0,-4.017688241E0,7.045064557E0,-3.493759300E0,8.830691221E0
6.230880708E0,-3.399801561E0,5.557340521E0,-4.428463619E0,7.877434503E0
6.240839708E0,-2.726035087E0,3.719994505E0,-5.228549831E0,6.971897858E0
6.250797708E0,-2.048001900E0,1.633219718E0,-5.886524144E0,6.443049350E0
6.260756708E0,-1.529628106E0,-5.999079537E-1,-5.992559307E0,6.213728249E0
6.270714708E0,-1.179363809E0,-2.581262121E0,-5.578334364E0,6.258724104E0
6.280672708E0,-8.878198823E-1,-4.076914980E0,-4.806974353E0,6.365254302E0
6.290631708E0,-5.907740182E-1,-4.709042262E0,-3.863778123E0,6.119875354E0
6.300589708E0,-2.826090887E-1,-4.285617895E0,-3.011488262E0,5.245517151E0
6.310548708E0,-8.740417957E-3,-3.163205089E0,-2.445663435E0,3.998401239E0
6.320506708E0,2.783561164E-1,-1.757350259E0,-2.042767473E0,2.708996310E0
6.330464708E0,5.777440828E-1,-4.613979399E-1,-9.250716162E-1,1.184243969E0
6.340423708E0,1.289991960E0,1.463149357E0,8.248143795E0,8.475656987E0
6.350381708E0,8.564475238E-1,3.212208264E0,9.357038423E0,9.930052988E0
6.360340708E0,-4.481882027E-1,2.661616897E0,4.181729098E-1,2.731290126E0
6.370298708E0,-7.425449324E-1,2.291824361E0,-1.188044805E0,2.686127759E0
6.380257708E0,-8.210496497E-1,2.023194503E0,-1.719744476E0,2.779381152E0
6.390215708E0,-6.274857616E-1,1.475728472E0,-2.307090272E0,2.809658062E0
6.400173708E0,-1.084673122E-1,9.854990816E-1,-2.360685850E0,2.560431855E0
6.410132708E0,4.596066454E-1,8.725530946E-1,-1.800844772E0,2.053199714E0
6.420090708E0,1.109709145E0,1.061531596E0,-2.396247447E-2,1.535863899E0
6.430049708E0,1.820239694E0,1.448324912E0,2.733386207E0,3.589194582E0
6.440007708E0,1.783263072E0,1.559961707E0,2.129910282E0,3.185910470E0
6.449965708E0,1.261535900E0,1.410291113E0,3.015712984E-1,1.916073876E0
6.459924708E0,9.406114689E-1,1.408615301E0,-2.159657407E-1,1.707509356E0
6.469882708E0,7.900047353E-1,1.574318376E0,2.700829138E-2,1.761622910E0
6.479841708E0,6.740132260E-1,1.747048634E0,7.466262889E-1,2.015917552E0
6.489799708E0,4.795605612E-1,1.764442931E0,1.548598813E0,2.396120922E0
6.499757708E0,2.728907239E-1,1.649086137E0,2.262611672E0,2.813070567E0
6.509716708E0,1.340368938E-1,1.481277480E0,2.794541066E0,3.165692441E0
6.519674708E0,3.497161210E-2,1.317923816E0,3.089828964E0,3.359343571E0
6.529633708E0,-5.268809080E-2,1.105676905E0,2.979790213E0,3.178749309E0
6.539591708E0,-1.041114289E-1,7.850389874E-1,2.329144800E0,2.460089612E0
6.549550708E0,-6.590045929E-2,2.530142838E-1,1.373053705E0,1.397725142E0
6.559508708E0,2.873772007E-1,-3.383432865E-1,2.133137360E-1,4.925084619E-1
6.569466708E0,9.839802673E-1,-5.871627778E-1,-6.160487540E-1,1.300958632E0
6.579425708E0,1.594345966E0,-3.964575934E-1,-4.333032382E-1,1.699078980E0
6.589383708E0,2.114225126E0,-8.909987211E-3,5.637873638E-1,2.188123274E0
6.599342708E0,2.616114450E0,4.242932636E-1,1.232235210E0,2.922752675E0
6.609300708E0,3.021538748E0,6.523177171E-1,6.820145559E-1,3.165495011E0
6.619258708E0,3.448469691E0,6.308280301E-1,3.196183093E-1,3.520233384E0
6.629217708E0,4.189393483E0,4.859930831E-1,1.161872229E0,4.374603308E0
6.639175708E0,5.032299732E0,1.051072097E-1,2.806644802E0,5.763015110E0
6.649134708E0,5.356154788E0,-6.659078157E-1,2.916227471E0,6.134835775E0
6.659092708E0,5.107766236E0,-1.716461264E0,1.819951719E0,5.687507315E0
6.669050708E0,4.858307644E0,-2.716557920E0,1.810208942E0,5.853178326E0
6.679009083E0,4.734437012E0,-3.072330002E0,3.498212539E0,6.640150332E0
6.688967083E0,4.333933437E0,-2.246780335E0,4.038678868E0,6.335765772E0
6.698926083E0,3.877652104E0,-1.422098980E0,1.302628670E0,4.330749681E0
6.708884083E0,3.463381552E0,-1.195497739E0,-4.376967629E-1,3.689960037E0
6.718843083E0,3.015912265E0,-1.019781892E0,-7.629960807E-1,3.273811985E0
6.728801083E0,2.591785647E0,-6.562499696E-1,-5.715594463E-1,2.733989221E0
6.738759083E0,2.390078049E0,-2.779479808E-1,-4.423629141E-1,2.446510394E0
6.748718083E0,2.293468306E0,-9.276899993E-2,-1.075671333E-1,2.297862843E0
6.758676083E0,1.927436114E0,-2.987284005E-1,7.262347090E-1,2.081265357E0
6.768635083E0,1.140009416E0,-9.015927064E-1,1.961860135E0,2.441594984E0
6.778593083E0,4.330176017E-1,-1.597105560E0,1.980043806E0,2.580469702E0
6.788551083E0,2.058354396E-1,-1.943826737E0,1.166162843E0,2.276129694E0
6.798510083E0,2.760809648E-1,-2.363677286E0,7.430396068E-1,2.493050113E0
6.808468083E0,5.658274573E-1,-3.018886451E0,1.737792492E-1,3.076367232E0
6.818427083E0,7.176118201E-1,-4.001204063E0,-4.156177497E-1,4.086237730E0
6.828385083E0,5.171099183E-1,-5.282103310E0,-5.194656153E-1,5.332716247E0
6.838343083E0,1.870927745E-1,-6.547682852E0,-3.707830542E-1,6.560840991E0
6.848302083E0,-2.710085052E-1,-7.609692750E0,-1.112615503E-1,7.615329835E0
6.858260083E0,-8.032305524E-1,-8.041452323E0,1.192105477E-1,8.082347799E0
6.868219083E0,-1.373048442E0,-7.093823318E0,-5.573595196E-1,7.246947008E0
6.878177083E0,-1.866013160E0,-5.371484433E0,-1.760554241E0,5.952680183E0
6.888135083E0,-2.089183255E0,-3.751972927E0,-2.397026442E0,4.918101594E0
6.898094083E0,-2.315229596E0,-2.424922777E0,-2.536930286E0,4.204349394E0
6.908052083E0,-2.581776676E0,-1.412260455E0,-2.816179272E0,4.073194826E0
6.918011083E0,-2.859349265E0,-6.217087126E-1,-3.105721404E0,4.267072226E0
6.927969083E0,-3.114591923E0,-4.806703627E-2,-2.710613641E0,4.129215373E0
6.937927083E0,-3.237262414E0,7.667307705E-1,-2.101358620E0,3.934901786E0
6.947886083E0,-3.264735557E0,1.667924112E0,-1.409104420E0,3.927600332E0
6.957844083E0,-3.202434059E0,2.255152963E0,-8.692614046E-1,4.012095983E0
6.967803083E0,-3.119371437E0,2.667766414E0,-5.351152495E-1,4.139299956E0
6.977761083E0,-3.073875421E0,2.904713134E0,-4.051410010E-1,4.248553604E0
6.987720083E0,-3.082129351E0,3.024994453E0,-6.300947893E-1,4.364302031E0
6.997678083E0,-3.102656001E0,2.967623327E0,-1.102642200E0,4.432728538E0
7.007636083E0,-3.229368673E0,2.738599584E0,-1.679018911E0,4.554981253E0
7.017595083E0,-3.416648558E0,2.497582033E0,-2.179663655E0,4.760497561E0
7.027553083E0,-3.597550301E0,2.336917503E0,-2.555951278E0,4.993639807E0
7.037512083E0,-3.775510309E0,2.280999995E0,-2.772289194E0,5.209896971E0
7.047470083E0,-3.927406939E0,2.315314965E0,-2.844303210E0,5.373571382E0
7.057428083E0,-4.012828912E0,2.385869808E0,-2.846483052E0,5.467873113E0
7.067387083E0,-4.020437309E0,2.544691295E0,-2.922553281E0,5.583967015E0
7.077345083E0,-3.956102149E0,2.696711301E0,-3.045486312E0,5.674326650E0
7.087304083E0,-3.810346266E0,2.830154702E0,-3.172739851E0,5.709184922E0
7.097262083E0,-3.573863230E0,2.975039935E0,-3.199291180E0,5.644362237E0
7.107220083E0,-3.239009562E0,3.181102831E0,-3.156791570E0,5.529550722E0
7.117179083E0,-2.810478237E0,3.319239793E0,-2.943576945E0,5.251741230E0
7.127137083E0,-2.335659183E0,3.268829777E0,-2.576713864E0,4.772840482E0
7.137096083E0,-1.794956042E0,3.012492521E0,-1.978954762E0,4.026566817E0
7.147054083E0,-1.116052789E0,2.491408542E0,-1.016273855E0,2.912988654E0
7.157012083E0,-2.412941247E-1,1.637899244E0,6.918212137E-1,1.794311395E0
7.166971083E0,1.019846211E0,4.521505684E-1,4.546115153E0,4.680992353E0
7.176929083E0,2.606413626E0,-4.780654281E-1,9.297785078E0,9.668026991E0
7.186888083E0,4.045947542E0,-1.077519053E0,1.137690411E1,1.212289923E1
7.196846083E0,6.391853970E0,-1.972017333E0,1.211787380E1,1.384151418E1
7.206805083E0,7.511387606E0,-2.980962580E0,7.006891594E0,1.069596239E1
7.216763083E0,7.003807772E0,-3.657062677E0,6.896425411E-1,7.931143522E0
7.226721083E0,6.568684296E0,-3.512260475E0,-2.050814703E0,7.725893344E0
7.236680083E0,7.225603772E0,-2.591994685E0,-1.018750151E0,7.743748329E0
7.246638083E0,8.124874549E0,-1.077521977E0,2.042625970E0,8.446713023E0
7.256597083E0,7.762885707E0,1.458062865E0,4.174209725E0,8.933776841E0
7.266555083E0,5.667114394E0,3.364072149E0,3.576773974E0,7.498431772E0
7.276513083E0,3.251789821E0,2.797958179E0,1.997894186E0,4.732260368E0
7.286472083E0,1.829007302E0,1.169904476E0,8.310823023E-2,2.172751981E0
7.296430083E0,1.142803216E0,-4.206709135E-1,-1.929897500E0,2.281987635E0
7.306389083E0,7.337431186E-1,-2.822381414E0,-2.430356594E0,3.796162402E0
7.316347083E0,5.563520443E-1,-6.139782257E0,-2.113960978E0,6.517306559E0
7.326305083E0,2.529283297E-1,-9.583571836E0,-1.078811580E0,9.647417080E0
7.336264083E0,-1.623491120E-1,-1.215647595E1,-2.312339902E-2,1.215758197E1
7.346222083E0,-1.018329151E0,-1.215138887E1,6.896999900E-1,1.221347337E1
7.356181083E0,-2.358020105E0,-9.162883966E0,2.054416296E-1,9.463662486E0
7.366139083E0,-3.278501949E0,-4.498170031E0,-1.244592423E0,5.703605785E0
7.376097083E0,-3.934267184E0,-1.281109162E0,-1.801871544E0,4.512919235E0
7.386056083E0,-4.539870911E0,1.181612940E0,-1.759731537E0,5.010318564E0
7.396014083E0,-4.998268352E0,3.439255064E0,-1.742049850E0,6.312360857E0
7.405973083E0,-5.348290282E0,5.191212435E0,-1.754001412E0,7.656984814E0
7.415931083E0,-5.462320343E0,6.299784297E0,-1.868981792E0,8.545017183E0
7.425889083E0,-5.283351690E0,6.584354249E0,-2.269482296E0,8.741743296E0
7.435848083E0,-4.869152183E0,5.708414447E0,-2.983904899E0,8.074548094E0
7.445806083E0,-4.416807487E0,3.943050579E0,-3.726142268E0,6.995711004E0
7.455765083E0,-3.926807014E0,2.097917826E0,-4.527176313E0,6.349519502E0
7.465723083E0,-3.377159387E0,2.070791423E-1,-5.246843430E0,6.243192555E0
7.475682083E0,-2.802960179E0,-1.487200710E0,-5.659986053E0,6.488743626E0
7.485640083E0,-2.260203204E0,-2.671295208E0,-5.642530945E0,6.639464743E0
7.495598083E0,-1.641683270E0,-3.249629275E0,-5.266584215E0,6.402509170E0
7.505557083E0,-1.129201423E0,-3.119760861E0,-4.592266349E0,5.665413833E0
7.515515083E0,-6.741743168E-1,-2.553374410E0,-3.850607854E0,4.669198297E0
7.525474083E0,-3.247005630E-1,-1.905554371E0,-3.160889592E0,3.705103363E0
7.535432083E0,-1.700779617E-2,-1.263250596E0,-2.630637179E0,2.918277454E0
7.545390083E0,2.131032363E-1,-5.782849503E-1,-2.186431661E0,2.271631546E0
7.555349083E0,3.932252526E-1,9.427465796E-2,-1.253054075E0,1.316684596E0
7.565307083E0,1.043893470E0,1.271776421E0,6.713922701E0,6.912589014E0
7.575266083E0,1.276376718E0,2.943194829E0,1.182738062E1,1.225473237E1
7.585224083E0,-2.065344742E-1,2.254788682E0,4.167749137E-1,2.302266235E0
7.595182083E0,-4.840959540E-1,1.773051787E0,-2.026792295E0,2.736046151E0
7.605141083E0,-2.559168416E-1,1.816619391E0,-2.048324082E0,2.749769260E0
7.615099083E0,7.970164239E-2,1.903531820E0,-1.965131652E0,2.737065609E0
7.625058083E0,5.130335319E-1,2.023186902E0,-1.167169733E0,2.391395791E0
7.635016083E0,1.025686995E0,2.041445417E0,1.095288742E-1,2.287253763E0
7.644974083E0,1.480636625E0,1.935372248E0,7.337951589E-1,2.544878364E0
7.654933083E0,1.788585208E0,1.781544868E0,9.908492839E-1,2.711958972E0
7.664891083E0,2.162295963E0,1.681619461E0,1.733953210E0,3.241907089E0
7.674850083E0,2.460253408E0,1.691550372E0,2.433066194E0,3.851493294E0
7.684804458E0,2.419976325E0,1.606426606E0,2.292624260E0,3.700407795E0
7.694762458E0,2.082443170E0,1.444095036E0,1.827652502E0,3.124466946E0
7.704721458E0,1.752591502E0,1.339228731E0,1.641937916E0,2.749740113E0
7.714679458E0,1.499149202E0,1.343662675E0,2.093478474E0,2.904398360E0
7.724638458E0,1.245234740E0,1.501971946E0,3.092839111E0,3.656799564E0
7.734596458E0,9.889199951E-1,1.676476250E0,3.541236352E0,4.040902161E0
7.744554458E0,8.253403366E-1,1.459517067E0,2.285669582E0,2.834724357E0
7.754513458E0,8.920982900E-1,8.107106030E-1,7.083574319E-1,1.398163543E0
7.764471458E0,1.292992751E0,2.180011564E-1,1.893693879E-2,1.311378422E0
7.774430458E0,1.864280046E0,-3.743270516E-2,2.544838353E-1,1.881941370E0
7.784388458E0,2.096660382E0,-2.457058489E-2,1.507898830E0,2.582701561E0
7.794347458E0,2.066538159E0,2.758540928E-1,2.801496913E0,3.492142666E0
7.804305458E0,2.080596327E0,6.566949427E-1,1.816051626E0,2.838692099E0
7.814263458E0,2.253144737E0,8.829821885E-1,3.049008675E-1,2.439115268E0
7.824222458E0,2.588848298E0,9.696005023E-1,-3.381398034E-1,2.785067175E0
7.834180458E0,3.036558783E0,7.876158553E-1,-4.771712427E-1,3.173124702E0
7.844139458E0,3.585346870E0,3.768746835E-1,-2.083221873E-1,3.611114071E0
7.854097458E0,4.103408422E0,-2.876754087E-1,5.214533763E-1,4.146399817E0
7.864055458E0,4.484557713E0,-1.413849728E0,2.562446073E0,5.355031168E0
7.874014458E0,4.515680395E0,-3.003105401E0,6.088518548E0,8.153531112E0
7.883972458E0,4.055898041E0,-3.631784579E0,5.131947981E0,7.481781755E0
7.893931458E0,3.777780198E0,-2.700177530E0,1.913884900E0,5.022503094E0
7.903889458E0,3.734815735E0,-1.899263352E0,4.572009547E-1,4.214864478E0
7.913847458E0,3.390712649E0,-1.620543539E0,-2.155201828E-1,3.764245286E0
7.923806458E0,2.774561130E0,-1.600740189E0,-2.102495027E-1,3.210103342E0
7.933764458E0,2.165636477E0,-1.605202784E0,8.258680478E-3,2.695686468E0
7.943723458E0,1.822064026E0,-1.397138970E0,-2.192531184E-1,2.306509603E0
7.953681458E0,1.701230730E0,-1.084951449E0,-5.205261906E-1,2.083807370E0
7.963639458E0,1.472575361E0,-1.001053260E0,3.610632277E-1,1.816852355E0
7.973598458E0,7.126484111E-1,-1.379682108E0,2.716791224E0,3.129272285E0
7.983556458E0,-4.173648977E-1,-2.182878454E0,4.614088157E0,5.121421807E0
7.993515458E0,-7.907417768E-1,-2.689891693E0,2.793252339E0,3.957656947E0
8.003473458E0,-3.639692938E-1,-2.934626319E0,7.801916456E-1,3.058300882E0
8.013431458E0,1.889717773E-1,-3.393831553E0,-1.723500435E-1,3.403455227E0
8.023390458E0,4.061823902E-1,-4.409632076E0,-5.925020166E-1,4.467762059E0
8.033348458E0,2.654030719E-1,-6.099138261E0,-4.230198862E-1,6.119548361E0
8.043307458E0,-1.118426174E-1,-7.927319936E0,3.990841627E-1,7.938147033E0
8.053265458E0,-4.891388851E-1,-9.422450055E0,1.268780892E0,9.520064435E0
8.063223458E0,-7.916697299E-1,-9.249869485E0,1.192740777E0,9.359992362E0
8.073182458E0,-1.173722708E0,-7.200720361E0,1.625841701E-1,7.297563451E0
8.083140458E0,-1.380023001E0,-4.752168986E0,-5.713222320E-1,4.981363533E0
8.093099458E0,-1.607909460E0,-2.660267944E0,-1.027198792E0,3.273764763E0
8.103057458E0,-2.017499315E0,-1.248320900E0,-1.763845492E0,2.956308420E0
8.113015458E0,-2.356745996E0,-3.669905502E-1,-2.511083546E0,3.463303962E0
8.122974458E0,-2.576515351E0,2.525511843E-1,-2.601747841E0,3.670327680E0
8.132932458E0,-2.761698425E0,9.753763819E-1,-1.992791028E0,3.542534878E0
8.142891458E0,-2.900523604E0,1.568203942E0,-1.421761011E0,3.590780577E0
8.152849458E0,-2.968910299E0,2.120155372E0,-1.159219566E0,3.827959922E0
8.162807458E0,-3.057241262E0,2.487124287E0,-1.211148104E0,4.123031783E0
8.172766458E0,-3.160860355E0,2.772204702E0,-1.465050287E0,4.452249930E0
8.182724458E0,-3.256498584E0,2.999812249E0,-1.718919726E0,4.749562252E0
8.192683458E0,-3.303183923E0,3.056296937E0,-1.995600908E0,4.922844501E0
8.202641458E0,-3.417854254E0,2.881153532E0,-2.240289926E0,5.000167230E0
8.212599458E0,-3.697444718E0,2.744556727E0,-2.388779090E0,5.187480565E0
8.222558458E0,-4.056509367E0,2.631427138E0,-2.472747738E0,5.430852457E0
8.232516458E0,-4.320159736E0,2.550264276E0,-2.445231326E0,5.580930412E0
8.242475458E0,-4.571260811E0,2.521951473E0,-2.312566774E0,5.710046385E0
8.252433458E0,-4.755383200E0,2.636635838E0,-2.218261710E0,5.872495461E0
8.262392458E0,-4.853315291E0,2.896145208E0,-2.271559081E0,6.091166312E0
8.272350458E0,-4.864461254E0,3.256558226E0,-2.392427168E0,6.323911964E0
8.282308458E0,-4.748524416E0,3.603760044E0,-2.557949272E0,6.486807771E0
8.292267458E0,-4.490176887E0,3.888686092E0,-2.730529842E0,6.537534796E0
8.302225458E0,-4.128193892E0,4.152006093E0,-2.774777477E0,6.479238339E0
8.312184458E0,-3.760071321E0,4.339136875E0,-2.654486802E0,6.325547039E0
8.322142458E0,-3.373626500E0,4.424316189E0,-2.412820795E0,6.064456586E0
8.332100458E0,-2.805000565E0,4.290028449E0,-2.059280887E0,5.523858256E0
8.342059458E0,-1.945827069E0,3.688015498E0,-1.416461972E0,4.403869414E0
8.352017458E0,-8.769531244E-1,2.427672138E0,-2.956246984E-1,2.598082515E0
8.361976458E0,5.930708045E-1,7.165341783E-1,2.508987612E0,2.675849966E0
8.371934458E0,2.761479154E0,-1.147407898E0,7.733775344E0,8.291778644E0
8.381892458E0,5.692814076E0,-3.549884384E0,1.346420339E1,1.504309091E1
8.391851458E0,9.229169757E0,-6.058393108E0,1.486388414E1,1.851531132E1
8.401809458E0,9.632870296E0,-7.103444912E0,7.728126934E0,1.424693180E1
8.411768458E0,8.211954208E0,-7.674246011E0,6.963156760E-1,1.126122104E1
8.421726458E0,8.128560634E0,-6.359142306E0,-7.783953810E-1,1.034978687E1
8.431684458E0,9.052075721E0,-3.965042542E0,8.247743261E-1,9.916747950E0
8.441643458E0,9.180682890E0,-5.065746975E-1,2.390877656E0,9.500413266E0
8.451601458E0,7.244546996E0,3.275381582E0,3.424653397E0,8.656779804E0
8.461560458E0,3.828025907E0,4.324560351E0,2.186366026E0,6.175419093E0
8.471518458E0,1.481670413E0,3.219814323E0,-7.273573744E-1,3.618231645E0
8.481476458E0,4.533176726E-1,1.336067727E0,-3.071782118E0,3.380298694E0
8.491435458E0,-1.590676546E-2,-1.478874859E0,-3.462674916E0,3.765294338E0
8.501393458E0,-4.192056012E-1,-6.012021180E0,-1.902258881E0,6.319708921E0
8.511352458E0,-9.123211777E-1,-1.111488569E1,3.853437907E-1,1.115892037E1
8.521310458E0,-1.037528191E0,-1.336568014E1,1.460628915E0,1.348522552E1
8.531268458E0,-1.416804326E0,-1.196034747E1,1.447107814E0,1.213059632E1
8.541227458E0,-2.399279813E0,-8.562286626E0,1.157989604E0,8.967175464E0
8.551185458E0,-3.423686559E0,-3.784341359E0,-1.067847759E-2,5.103232624E0
8.561144458E0,-4.079320817E0,-6.471101868E-1,-1.161578918E0,4.290556550E0
8.571102458E0,-4.613565416E0,1.632076587E0,-1.592130164E0,5.146215920E0
8.581060458E0,-5.041325494E0,3.901458750E0,-1.619535625E0,6.577175591E0
8.591019458E0,-5.369833764E0,5.670513965E0,-1.630562158E0,7.978005780E0
8.600977458E0,-5.331819845E0,6.732628528E0,-1.863996894E0,8.788121198E0
8.610936458E0,-4.889659830E0,6.880612786E0,-2.410190717E0,8.778418129E0
8.620894458E0,-4.267285996E0,6.027104073E0,-3.228914929E0,8.059876233E0
8.630852458E0,-3.579853703E0,4.321298189E0,-4.089250267E0,6.943409704E0
8.640811458E0,-2.830576871E0,2.429459631E0,-4.949487956E0,6.197731080E0
8.650769458E0,-1.989416893E0,4.514863247E-1,-5.721645527E0,6.074442115E0
8.660728458E0,-1.280197581E0,-1.379458160E0,-5.835754525E0,6.131707881E0
8.670686458E0,-8.453348905E-1,-2.781150357E0,-5.472206231E0,6.196323863E0
8.680644542E0,-6.307300892E-1,-3.417011670E0,-4.709794214E0,5.852858339E0
8.690603542E0,-5.006783652E-1,-3.131083995E0,-3.754678434E0,4.914465988E0
8.700561542E0,-3.503619459E-1,-2.389417314E0,-3.024641281E0,3.870468120E0
8.710520542E0,-1.240744078E-1,-1.638952913E0,-2.540806990E0,3.026096705E0
8.720478542E0,9.412292272E-2,-9.113867927E-1,-2.118711548E0,2.308337851E0
8.730436542E0,2.233136442E-1,-1.586220968E-1,-1.612926371E0,1.636019997E0
8.740395542E0,3.657632196E-1,6.269261831E-1,-6.555423103E-2,7.287774208E-1
8.750353542E0,6.123917592E-1,2.149218957E0,8.245199137E0,8.542685445E0
8.760312542E0,-4.454730481E-2,3.026116533E0,6.417540203E0,7.095363838E0
8.770270542E0,-5.469643396E-1,2.077094722E0,-2.476974106E-1,2.162139329E0
8.780228542E0,-5.337768218E-1,1.756876634E0,-1.513803787E0,2.379734252E0
8.790187542E0,-4.634447578E-1,1.950481453E0,-1.761486579E0,2.668706411E0
8.800145542E0,-3.947461134E-1,2.160433917E0,-1.610096319E0,2.723180009E0
8.810104542E0,-2.798269835E-1,2.220935642E0,-1.323971007E0,2.600722495E0
8.820062542E0,-1.121042803E-1,2.097310300E0,-9.556958234E-1,2.307516495E0
8.830020542E0,1.035217372E-1,1.934532003E0,-4.214521746E-1,1.982612609E0
8.839979542E0,4.707727808E-1,1.766328658E0,6.548120662E-1,1.941731903E0
8.849937542E0,1.041538504E0,1.580073790E0,2.581516474E0,3.200884713E0
8.859896542E0,1.747468172E0,1.368964747E0,4.352483729E0,4.885880074E0
8.869854542E0,2.224967882E0,1.201556039E0,3.969801006E0,4.706754617E0
8.879812542E0,2.427486196E0,1.018708343E0,2.471926789E0,3.611215581E0
8.889771542E0,2.685975813E0,8.286738342E-1,1.748037983E0,3.310106219E0
8.899729542E0,2.973190168E0,6.462670183E-1,1.828524907E0,3.549792131E0
8.909688542E0,3.120804589E0,5.110063022E-1,2.529697280E0,4.049681105E0
8.919646542E0,2.784645530E0,5.580407202E-1,3.383970809E0,4.417795673E0
8.929604542E0,1.932136691E0,7.961089361E-1,3.384909872E0,3.978009109E0
8.939563542E0,1.409180142E0,8.613170850E-1,2.103856112E0,2.674671257E0
8.949521542E0,1.862267726E0,4.359683990E-1,3.873945554E-1,1.951456910E0
8.959480542E0,2.412228472E0,8.397186399E-2,2.108497193E-1,2.422881565E0
8.969438542E0,2.438055038E0,1.004037094E-1,1.907663755E0,3.097317271E0
8.979396542E0,2.624912170E0,4.688127941E-1,2.455828235E0,3.625057470E0
8.989355542E0,2.853846450E0,7.361796534E-1,7.878131989E-1,3.050745758E0
8.999313542E0,3.074170706E0,7.273819327E-1,-1.074203682E-1,3.160877906E0
9.009272542E0,3.453371412E0,5.507521659E-1,-1.961799324E-1,3.502511759E0
9.019230542E0,3.897919430E0,1.581075418E-1,1.447162485E-1,3.903807971E0
9.029188542E0,4.211752358E0,-5.532103354E-1,1.205651429E0,4.415710019E0
9.039147542E0,4.025306286E0,-1.683687036E0,3.129387717E0,5.369446919E0
9.049105542E0,3.228703552E0,-2.846374878E0,4.518368068E0,6.240354683E0
9.059064542E0,2.723612001E0,-2.985309400E0,3.536542207E0,5.370034015E0
9.069022542E0,2.574177049E0,-2.401158523E0,1.864647835E0,3.983573934E0
9.078980542E0,2.368482820E0,-2.057761488E0,4.084136876E-1,3.163999834E0
9.088939542E0,2.116531560E0,-2.081337461E0,-6.314196222E-1,3.034857857E0
9.098897542E0,1.859928548E0,-2.232737662E0,-7.949416126E-1,3.012703742E0
9.108856542E0,1.630240561E0,-2.363830483E0,-3.268312152E-1,2.890016866E0
9.118814542E0,1.565458674E0,-2.373849687E0,2.340524943E-1,2.853174332E0
9.128772542E0,1.645333102E0,-2.275322934E0,5.536034144E-2,2.808430209E0
9.138731542E0,1.570229710E0,-2.215131111E0,-6.631678104E-1,2.795034656E0
9.148689542E0,1.101138004E0,-2.337715648E0,-8.204731143E-1,2.711198165E0
9.158648542E0,5.015171483E-1,-2.502434052E0,-2.599531015E-1,2.565398848E0
9.168606542E0,1.479842573E-2,-2.602007457E0,3.237638390E-1,2.622114571E0
9.178564542E0,-4.917622384E-1,-3.065693412E0,8.323744639E-1,3.214522273E0
9.188523542E0,-1.285393709E0,-4.098263749E0,2.757838093E0,5.104279939E0
9.198481542E0,-1.933521019E0,-5.306486199E0,4.501268470E0,7.222099221E0
9.208440542E0,-1.657616056E0,-5.671076467E0,2.691067568E0,6.492352728E0
9.218398542E0,-1.068920723E0,-5.556987934E0,1.528091312E0,5.861550091E0
9.228356542E0,-4.615119606E-1,-5.032945265E0,1.009513450E0,5.153896461E0
9.238315542E0,-1.142411453E-1,-3.890668883E0,-2.726891412E-1,3.901886052E0
9.248273542E0,-1.828248918E-2,-2.221412190E0,-1.224512208E0,2.536619111E0
9.258232542E0,-1.500629425E-2,-1.135584244E0,-1.273944569E0,1.706666789E0
9.268190542E0,-2.063108182E-1,-6.903351438E-1,-1.099995750E0,1.314959092E0
9.278148542E0,-7.302628559E-1,-6.151130533E-1,-1.601985061E0,1.864940761E0
9.288107542E0,-1.396199908E0,-7.845162463E-1,-2.731074802E0,3.166008449E0
9.298065542E0,-1.787625972E0,-8.249035496E-1,-2.987632791E0,3.577991361E0
9.308024542E0,-1.703426067E0,-7.235274482E-1,-2.134022044E0,2.824748204E0
9.317982542E0,-1.503302772E0,-5.931760544E-1,-1.029045343E0,1.915910064E0
9.327940542E0,-1.436541603E0,-2.555718559E-1,-5.985347351E-1,1.577089908E0
9.337899542E0,-1.604401715E0,1.447694582E-1,-5.281038532E-1,1.695274827E0
9.347857542E0,-1.990364141E0,5.764483398E-1,-7.082287931E-1,2.189847056E0
9.357816542E0,-2.602460032E0,1.068248878E0,-1.098851450E0,3.020170258E0
9.367774542E0,-3.300252129E0,1.544111075E0,-1.630700445E0,3.991882647E0
9.377732542E0,-3.897489075E0,1.820620641E0,-2.119868274E0,4.795719144E0
9.387691542E0,-4.378388064E0,2.075138243E0,-2.439961523E0,5.424932534E0
9.397649542E0,-4.778993087E0,2.263929049E0,-2.709414961E0,5.941807730E0
9.407608542E0,-5.116803693E0,2.350237461E0,-2.901141654E0,6.334186534E0
9.417566542E0,-5.388878730E0,2.342833132E0,-3.023268355E0,6.608254882E0
9.427524542E0,-5.580756866E0,2.345684819E0,-3.037654259E0,6.773066356E0
9.437483542E0,-5.707588820E0,2.421079402E0,-3.051305754E0,6.910040696E0
9.447441542E0,-5.784867377E0,2.599946898E0,-3.059018523E0,7.041449337E0
9.457400542E0,-5.799753218E0,2.895113175E0,-3.014465371E0,7.148833413E0
9.467358542E0,-5.764280500E0,3.328792389E0,-2.958828237E0,7.284397915E0
9.477316542E0,-5.589897818E0,3.843960155E0,-2.832956980E0,7.351777509E0
9.487275542E0,-5.284365013E0,4.343280796E0,-2.642229284E0,7.332801460E0
9.497233542E0,-4.925862281E0,4.724206431E0,-2.453707742E0,7.252787553E0
9.507192542E0,-4.500486113E0,4.915720285E0,-2.227334250E0,7.027069022E0
9.517150542E0,-3.927743738E0,4.921316655E0,-1.815782654E0,6.553136283E0
9.527108542E0,-3.000449888E0,4.640634516E0,-9.356506911E-1,5.604786388E0
9.537067542E0,-1.557885945E0,3.922947852E0,1.091408237E0,4.359782151E0
9.547025542E0,1.024941475E0,2.875489919E0,7.394599414E0,7.999940487E0
9.556984542E0,3.064088352E0,7.197255886E-1,8.386443894E0,8.957627115E0
9.566942542E0,6.748033018E0,-3.095186768E0,1.021760239E1,1.262994574E1
9.576900542E0,1.083689269E1,-6.051961756E0,1.513231929E1,1.957170333E1
9.586859542E0,1.063792481E1,-8.166535960E0,8.126047500E0,1.568089289E1
9.596817542E0,9.156197090E0,-9.290226383E0,-2.610091817E-1,1.304654656E1
9.606776542E0,9.498789548E0,-8.084824630E0,-1.919057054E0,1.262038716E1
9.616734542E0,1.089167759E1,-6.598591635E0,-2.521681917E-1,1.273709705E1
9.626692542E0,1.080441492E1,-3.062946391E0,1.095396330E0,1.128347976E1
9.636651542E0,7.643372712E0,7.692667079E-1,2.530374388E0,8.087998036E0
9.646609542E0,2.913693287E0,1.435660427E0,3.331776223E0,4.653113177E0
9.656568542E0,-1.757398206E-1,1.055282092E-1,2.414354519E0,2.423041154E0
9.666526542E0,-1.670557698E0,-2.235273600E0,1.850182993E0,3.348191780E0
9.676484542E0,-2.877270396E0,-6.109807091E0,3.371279427E0,7.548109207E0
9.686443917E0,-3.634381912E0,-1.186368130E1,3.888718836E0,1.300299197E1
9.696401917E0,-2.720058648E0,-1.390203354E1,9.389520290E-1,1.419672098E1
9.706360917E0,-1.478655296E0,-1.095023278E1,-2.321413904E0,1.129083619E1
9.716318917E0,-6.942583331E-1,-7.101285535E0,-3.422262762E0,7.913414769E0
9.726276917E0,-7.490312487E-1,-3.656020703E0,-2.695714350E0,4.603738812E0
9.736235917E0,-1.471314409E0,-3.461890805E-1,-2.257804091E0,2.717037409E0
9.746193917E0,-2.247746588E0,2.760288076E0,-2.174285094E0,4.171219325E0
9.756151917E0,-2.992823072E0,5.334687320E0,-2.140053008E0,6.480409371E0
9.766110917E0,-3.610883707E0,7.341703747E0,-2.161052406E0,8.462224445E0
9.776068917E0,-3.927494062E0,8.642506916E0,-2.353106689E0,9.780350019E0
9.786027917E0,-3.967862947E0,9.071732891E0,-2.738306054E0,1.027319785E1
9.795985917E0,-3.726567360E0,8.369820845E0,-3.701406206E0,9.881377088E0
9.805944917E0,-3.243332993E0,6.924579754E0,-4.921719528E0,9.093532691E0
9.815902917E0,-2.622408392E0,5.216023926E0,-6.138180120E0,8.471197469E0
9.825860917E0,-2.121967717E0,3.339026771E0,-6.954129828E0,8.000735493E0
9.835819917E0,-1.847969822E0,1.297034639E0,-6.974200396E0,7.330536302E0
9.845777917E0,-1.809909711E0,-7.695970756E-1,-6.088939548E0,6.398690306E0
9.855735917E0,-1.880988464E0,-2.533965747E0,-4.874083432E0,5.806529886E0
9.865694917E0,-1.907511435E0,-3.730216023E0,-3.551045056E0,5.492088167E0
9.875652917E0,-1.811703344E0,-4.244144179E0,-2.385247811E0,5.194654554E0
9.885611917E0,-1.500853081E0,-3.922342080E0,-1.590254523E0,4.490683335E0
9.895569917E0,-9.731781211E-1,-3.036144508E0,-1.186044691E0,3.401757067E0
9.905527917E0,-4.078795445E-1,-1.956887078E0,-9.879668259E-1,2.229764832E0
9.915486917E0,7.363515615E-2,-9.166516256E-1,-7.608491293E-1,1.193550894E0
9.925444917E0,3.491854861E-1,3.877288699E-2,-5.230832145E-1,6.301189489E-1
9.935403917E0,4.940338817E-1,8.179786921E-1,2.972122175E-1,1.000746581E0
9.945361917E0,8.262285286E-1,1.869513888E0,5.543441105E0,5.908254822E0
9.955319917E0,4.924142030E-1,2.739169103E0,6.238893732E0,6.831494282E0
9.965278917E0,-3.488068789E-1,2.232946993E0,1.261587063E0,2.588304547E0
9.975236917E0,-4.503314996E-1,2.100326294E0,3.091773748E-1,2.170198067E0
9.985195917E0,-1.539726833E-1,2.264548270E0,1.793633767E-1,2.276852580E0
9.995153917E0,3.506844199E-1,2.071193712E0,-5.487599465E-1,2.171165685E0
1.000511192E1,9.158409092E-1,1.718758636E0,-1.314848181E0,2.349834368E0
1.001507092E1,1.410564470E0,1.550085760E0,-1.562378361E0,2.614093367E0
1.002502892E1,1.854360829E0,1.583946401E0,-7.645210346E-1,2.555784165E0
1.003498792E1,2.465539876E0,1.662438254E0,2.989869643E0,4.216860006E0
1.004494592E1,2.904604083E0,1.693477614E0,6.538037285E0,7.351906069E0
1.005490392E1,2.166998294E0,1.579575607E0,2.361264725E0,3.573025581E0
1.006486292E1,1.598087892E0,1.315121831E0,-1.038769555E-1,2.072250169E0
1.007482092E1,1.437585038E0,1.137329053E0,-2.990967751E-2,1.833320132E0
1.008477992E1,1.404703513E0,1.009408346E0,1.152759855E0,2.078690081E0
1.009473792E1,1.292170925E0,9.671657217E-1,3.425089599E0,3.786337807E0
1.010469592E1,1.117246791E0,1.161275740E0,5.251418291E0,5.493104387E0
1.011465492E1,1.168159959E0,1.169476460E0,3.576269360E0,3.939793829E0
1.012461292E1,1.586221845E0,5.304570651E-1,9.252261288E-1,1.911420369E0
1.013457192E1,2.259850032E0,-1.910215187E-1,-2.349387860E-1,2.280045530E0
1.014452992E1,2.687922058E0,-4.464676595E-1,3.350304003E-1,2.745269337E0
1.015448792E1,3.056244897E0,-5.776452649E-1,2.479881341E0,3.977954045E0
1.016444692E1,3.590945871E0,-3.995653886E-1,3.727312295E0,5.191088681E0
1.017440492E1,3.590062941E0,7.714816332E-3,1.154872015E0,3.771251889E0
1.018436392E1,3.611616071E0,2.732240152E-1,-5.352912506E-1,3.661278291E0
1.019432192E1,3.984833028E0,3.326937068E-1,-6.931875618E-1,4.058335664E0
1.020427992E1,4.505488991E0,6.364518821E-2,-1.503237283E-1,4.508445295E0
1.021423892E1,5.038851537E0,-6.278617376E-1,1.850214568E0,5.404399053E0
1.022419692E1,5.213655803E0,-1.866045905E0,5.050923114E0,7.495075614E0
1.023415492E1,4.801646370E0,-2.810623832E0,5.126342840E0,7.565368802E0
1.024411392E1,4.232228138E0,-2.331457958E0,2.660852666E0,5.516120750E0
1.025407192E1,3.910195952E0,-1.366351626E0,7.716991496E-1,4.213320392E0
1.026403092E1,3.683964255E0,-1.048398750E0,-5.451407392E-1,3.868838455E0
1.027398892E1,3.335841208E0,-1.235435976E0,-6.239329934E-1,3.611569049E0
1.028394692E1,3.035081484E0,-1.557863726E0,9.909042478E-2,3.412986657E0
1.029390592E1,2.875807131E0,-1.645664932E0,4.341488917E-1,3.341700911E0
1.030386392E1,2.639567631E0,-1.374614326E0,9.496002473E-2,2.977565991E0
1.031382292E1,2.145700395E0,-1.129583246E0,-2.923923576E-1,2.442433579E0
1.032378092E1,1.456507505E0,-1.322757710E0,-4.099804125E-1,2.009772626E0
1.033373892E1,8.217539468E-1,-1.771465437E0,-2.272725016E-1,1.965965955E0
1.034369792E1,1.242480701E-1,-2.328409220E0,7.317147195E-1,2.443835819E0
1.035365592E1,-4.049611992E-1,-3.067869746E0,2.214164566E0,3.805041797E0
1.036361492E1,-1.718923527E-1,-3.580538996E0,1.551256811E0,3.905919121E0
1.037357292E1,4.763574564E-1,-4.018595436E0,-1.574824744E-1,4.049793382E0
1.038353092E1,6.668003932E-1,-4.827637244E0,-7.948647948E-1,4.937865345E0
1.039348992E1,3.145541820E-1,-6.214319054E0,-4.561933333E-1,6.238975717E0
1.040344792E1,-1.103504080E-1,-8.167087938E0,9.092806256E-1,8.218290202E0
1.041340692E1,-6.820280045E-1,-9.199582261E0,1.115842728E0,9.292070865E0
1.042336492E1,-1.294454847E0,-8.348113056E0,-5.605766577E-1,8.466454461E0
1.043332292E1,-2.016378404E0,-6.466512973E0,-1.722035561E0,6.989061337E0
1.044328192E1,-2.624868316E0,-4.501474877E0,-2.144848895E0,5.635032078E0
1.045323992E1,-3.135199265E0,-3.078325737E0,-2.726206995E0,5.170857603E0
1.046319892E1,-3.502020246E0,-1.899180906E0,-3.186911455E0,5.101709374E0
1.047315692E1,-3.694250969E0,-8.085494721E-1,-3.087046275E0,4.881710476E0
1.048311492E1,-3.719562396E0,2.965134752E-1,-2.857212985E0,4.699652189E0
1.049307392E1,-3.608149549E0,1.532426584E0,-2.794884882E0,4.814400887E0
1.050303192E1,-3.473118628E0,2.612025492E0,-3.031049829E0,5.298348162E0
1.051299092E1,-3.198147465E0,3.418257127E0,-3.797565422E0,6.027780033E0
1.052294892E1,-2.827235187E0,3.589737836E0,-2.575393270E0,5.245200381E0
1.053290692E1,-2.514274664E0,3.763175023E0,-9.774097511E-1,4.630161246E0
1.054286592E1,-2.269910751E0,3.973040364E0,-6.058083791E-1,4.615685035E0
1.055282392E1,-2.432872066E0,3.701053035E0,-2.026181261E0,4.870530829E0
1.056278192E1,-3.023619187E0,3.130996871E0,-3.183487326E0,5.392588057E0
1.057274092E1,-3.649107540E0,2.421168864E0,-2.607808480E0,5.096931388E0
1.058269892E1,-4.174439521E0,1.901682345E0,-2.424193337E0,5.188357581E0
1.059265792E1,-4.560701324E0,1.775252679E0,-2.769867277E0,5.623493876E0
1.060261592E1,-4.914678311E0,1.834651034E0,-3.015311171E0,6.050794062E0
1.061257392E1,-5.239493480E0,2.016386590E0,-3.107891014E0,6.416938005E0
1.062253292E1,-5.459203777E0,2.308287197E0,-3.110382512E0,6.693696665E0
1.063249092E1,-5.577444418E0,2.654214322E0,-3.070613260E0,6.897927638E0
1.064244992E1,-5.631538180E0,3.021189085E0,-2.991780221E0,7.056383964E0
1.065240792E1,-5.468503774E0,3.456071071E0,-2.748967575E0,7.028924775E0
1.066236592E1,-4.927043418E0,3.913874727E0,-2.319601559E0,6.706319678E0
1.067232492E1,-4.058893277E0,4.274248568E0,-1.626538689E0,6.114690799E0
1.068228221E1,-3.097459581E0,4.391147273E0,-6.057382125E-1,5.407711994E0
1.069224121E1,-2.065437713E0,4.143269768E0,6.398803970E-1,4.673560125E0
1.070219921E1,-9.670294815E-1,3.434608866E0,1.789029011E0,3.991529642E0
1.071215721E1,-6.449595809E-2,2.292323129E0,1.861527469E0,2.953673911E0
1.072211621E1,9.029118383E-1,1.153389600E0,2.163345246E0,2.612588756E0
1.073207421E1,2.446274469E0,-1.733500636E-1,3.292535559E0,4.105496247E0
1.074203321E1,5.807800156E0,-2.716662585E0,9.150510088E0,1.117330001E1
1.075199121E1,9.215966159E0,-5.375061175E0,1.403865724E1,1.763261785E1
1.076194921E1,9.323974757E0,-7.027791882E0,6.622688595E0,1.342335160E1
1.077190821E1,8.887795858E0,-7.950345687E0,-8.864204974E-1,1.195770267E1
1.078186621E1,1.065667917E1,-8.306112506E0,-9.844600314E-1,1.354715754E1
1.079182521E1,1.228703843E1,-6.636266415E0,4.867353871E-1,1.397312623E1
1.080178321E1,1.220114751E1,-2.112006108E0,2.772072555E0,1.268908809E1
1.081174121E1,9.146215308E0,2.104432794E0,3.512400515E0,1.002092058E1
1.082170021E1,4.425209643E0,3.495221103E0,1.992012764E0,5.980565676E0
1.083165821E1,1.537255214E0,3.463872426E0,-4.543358190E-1,3.816803219E0
1.084161721E1,-6.090284407E-2,2.139822482E0,-2.069149525E0,2.977235155E0
1.085157521E1,-8.351946491E-1,-2.251227143E0,-9.507653050E-1,2.582543013E0
1.086153321E1,-8.920640838E-1,-9.135012628E0,2.782631457E-2,9.178507958E0
1.087149221E1,-1.180812457E0,-1.299876736E1,-5.615198135E-2,1.305241066E1
1.088145021E1,-1.796043331E0,-1.157781444E1,-1.055983466E0,1.176378595E1
1.089140821E1,-1.545450964E0,-8.871714261E0,-2.256728496E0,9.283779194E0
1.090136721E1,-1.753970861E0,-5.308799357E0,-2.396973817E0,6.083193888E0
1.091132521E1,-2.749873016E0,-1.668046904E0,-2.541691089E0,4.099314048E0
1.092128421E1,-3.896657016E0,1.412086793E0,-2.721330125E0,4.958181387E0
1.093124221E1,-4.822121858E0,3.957841696E0,-2.675022516E0,6.787717994E0
1.094120021E1,-5.748486586E0,6.594762293E0,-2.095641651E0,8.995982529E0
1.095115921E1,-6.239461496E0,8.197422123E0,-2.025162530E0,1.049904246E1
1.096111721E1,-5.825552888E0,7.179880300E0,-2.277830805E0,9.522408348E0
1.097107621E1,-5.384523139E0,5.830616577E0,-2.608159313E0,8.354141135E0
1.098103421E1,-4.824708374E0,4.387988607E0,-3.297152520E0,7.307767761E0
1.099099221E1,-4.082203202E0,2.568261421E0,-3.768379630E0,6.120542031E0
1.100095121E1,-3.269654527E0,4.761744386E-1,-4.052805741E0,5.229016848E0
1.101090921E1,-2.493862034E0,-1.601824263E0,-4.302077222E0,5.224275762E0
1.102086821E1,-1.629212328E0,-3.278473005E0,-4.596889157E0,5.876572809E0
1.103082621E1,-7.333694816E-1,-4.154943734E0,-4.684696795E0,6.304583435E0
1.104078421E1,8.112543941E-2,-3.965150131E0,-4.483905748E0,5.986184733E0
1.105074321E1,5.898048422E-1,-3.012693665E0,-4.171263898E0,5.179153925E0
1.106070121E1,7.774633348E-1,-1.945318362E0,-3.774553120E0,4.316939196E0
1.107066021E1,7.454176694E-1,-9.606104082E-1,-3.254854932E0,3.474550400E0
1.108061821E1,5.700029540E-1,-9.922081769E-2,-2.581429936E0,2.645473238E0
1.109057621E1,4.592324236E-1,6.608710241E-1,-6.881887040E-1,1.058890278E0
1.110053521E1,1.027979396E0,2.198751891E0,9.308947413E0,9.620174294E0
1.111049321E1,5.491438892E-1,3.336884351E0,7.649222851E0,8.363430302E0
1.112045121E1,-4.729385895E-1,2.703181245E0,4.865579242E-1,2.787041149E0
1.113041021E1,-7.095268750E-1,2.315582183E0,-1.015024012E0,2.625951823E0
1.114036821E1,-6.670743352E-1,1.976749485E0,-1.728029981E0,2.708987691E0
1.115032721E1,-3.677313924E-1,1.458027197E0,-2.186794335E0,2.653891321E0
1.116028521E1,1.152834114E-1,1.253996792E0,-2.117852154E0,2.463959408E0
1.117024321E1,5.341299936E-1,1.288028757E0,-1.598859140E0,2.121476721E0
1.118020221E1,9.806128559E-1,1.497840888E0,-3.470217240E-1,1.823609875E0
1.119016021E1,1.551874131E0,1.864267766E0,2.160970691E0,3.248630781E0
1.120011921E1,1.901477108E0,2.186306092E0,3.816821473E0,4.792042954E0
1.121007721E1,1.640973710E0,2.245514998E0,2.651600032E0,3.842670302E0
1.122003521E1,1.209646246E0,1.989550794E0,1.549514487E0,2.796882469E0
1.122999421E1,9.278329638E-1,1.588358710E0,1.419629116E0,2.323597260E0
1.123995221E1,9.756243038E-1,1.312032747E0,2.034416041E0,2.610004088E0
1.124991121E1,1.162196968E0,1.240324248E0,3.023877050E0,3.468852612E0
1.125986921E1,1.211719961E0,1.311989477E0,3.911891352E0,4.300287851E0
1.126982721E1,1.063482227E0,1.382312770E0,3.681081870E0,4.073345894E0
1.127978621E1,8.168814620E-1,1.193620782E0,2.525222991E0,2.910116329E0
1.128974421E1,6.552264145E-1,6.462038684E-1,1.175131448E0,1.492593385E0
1.129970321E1,9.690732296E-1,1.391637325E-2,-6.247165203E-3,9.691932815E-1
1.130966121E1,1.733313232E0,-2.823994660E-1,-3.715437770E-1,1.795040110E0
1.131961921E1,2.424226373E0,-3.069817454E-1,5.910504453E-1,2.514050901E0
1.132957821E1,3.094865756E0,-2.340283746E-1,3.084173537E0,4.375510226E0
1.133953621E1,3.670871754E0,3.698071539E-2,3.896722505E0,5.353607502E0
1.134949521E1,3.434051042E0,1.788634032E-1,6.532076633E-1,3.500196984E0
1.135945321E1,3.509967489E0,3.665929395E-1,-9.309385662E-1,3.649782017E0
1.136941121E1,4.018985153E0,4.607681948E-1,-1.009609637E0,4.169395713E0
1.137937021E1,4.670316445E0,1.553821546E-1,-4.281145652E-1,4.692470713E0
1.138932821E1,5.388391657E0,-6.538099265E-1,1.723189656E0,5.694876176E0
1.139928621E1,5.813901726E0,-1.868549682E0,5.005713612E0,7.896207948E0
1.140924521E1,5.570044182E0,-2.705710750E0,4.157431140E0,7.458585425E0
1.141920321E1,5.210346279E0,-2.528958777E0,1.699742467E0,6.035931187E0
1.142916221E1,5.137181239E0,-1.994785806E0,3.699369621E-1,5.523282978E0
1.143912021E1,5.108081401E0,-1.842990918E0,-7.730159426E-1,5.485131245E0
1.144907821E1,4.850967927E0,-1.990229656E0,-9.293761902E-1,5.325095681E0
1.145903721E1,4.210991051E0,-2.400397800E0,-2.723060024E-1,4.854740548E0
1.146899521E1,3.360712924E0,-2.892874276E0,5.289929223E-1,4.465752618E0
1.147895421E1,2.465963506E0,-3.020283936E0,9.278583261E-1,4.007993530E0
1.148891221E1,1.628795714E0,-2.814614557E0,6.315121543E-1,3.312678400E0
1.149887021E1,9.491378787E-1,-2.787889858E0,-1.182950199E-1,2.947403312E0
1.150882921E1,3.174181482E-1,-3.003591889E0,-4.537527055E-1,3.054211852E0
1.151878721E1,-3.492278785E-1,-3.355361552E0,-2.989283022E-1,3.386704798E0
1.152874621E1,-1.002973193E0,-3.940155038E0,2.475816357E-1,4.073336914E0
1.153870421E1,-1.805135459E0,-4.829725869E0,1.269408883E0,5.310006112E0
1.154866221E1,-2.408313468E0,-5.933362681E0,1.948645427E0,6.693428528E0
1.155862121E1,-2.818840632E0,-6.678830636E0,1.796728771E0,7.468659549E0
1.156857921E1,-3.398599665E0,-7.256529695E0,1.699447621E0,8.191204131E0
1.157853721E1,-4.114245359E0,-7.349882247E0,1.116202039E0,8.496687056E0
1.158849621E1,-4.563042842E0,-6.629026392E0,-3.065274167E-1,8.053527795E0
1.159845421E1,-4.711600711E0,-5.325720615E0,-6.188619956E-1,7.137609649E0
1.160841321E1,-4.256416900E0,-3.866007081E0,-3.091927238E-1,5.758358769E0
1.161837121E1,-3.650150684E0,-2.459344751E0,-6.694348562E-1,4.451979295E0
1.162832921E1,-3.506029097E0,-1.365367540E0,-1.736839980E0,4.144041706E0
1.163828821E1,-3.469577554E0,-6.097032094E-1,-2.677744980E0,4.424932156E0
1.164824621E1,-3.425508844E0,4.078432918E-2,-2.779897591E0,4.411757566E0
1.165820521E1,-3.357611561E0,6.722701710E-1,-2.568256451E0,4.280355566E0
1.166816321E1,-3.033779309E0,1.359944832E0,-2.189753318E0,3.980990635E0
1.167812121E1,-2.590263324E0,2.016633343E0,-1.926654342E0,3.806346159E0
1.168808079E1,-2.229921058E0,2.525946876E0,-2.070537947E0,3.954754472E0
1.169803879E1,-1.808173673E0,2.973172334E0,-2.207725905E0,4.121079887E0
1.170799779E1,-1.364738379E0,3.325429071E0,-2.376882638E0,4.309357309E0
1.171795579E1,-1.039082966E0,3.604228406E0,-2.457176603E0,4.484180267E0
1.172791379E1,-9.213662356E-1,3.784884565E0,-2.431621055E0,4.592063574E0
1.173787279E1,-1.129542900E0,3.784206873E0,-2.372689307E0,4.607140477E0
1.174783079E1,-1.755744613E0,3.580727862E0,-2.282044893E0,4.594777477E0
1.175778879E1,-2.588107456E0,3.235562044E0,-2.224052500E0,4.702506934E0
1.176774779E1,-3.292534389E0,2.895751106E0,-2.184123034E0,4.898627420E0
1.177770579E1,-3.887082785E0,2.628489497E0,-2.276514304E0,5.215446960E0
1.178766479E1,-4.259652164E0,2.488277943E0,-2.507954409E0,5.534076165E0
1.179762279E1,-4.505918761E0,2.449429042E0,-2.804077290E0,5.845156624E0
1.180758079E1,-4.661710805E0,2.526238067E0,-3.011484753E0,6.097742765E0
1.181753979E1,-4.717665735E0,2.828283008E0,-3.072997462E0,6.300703784E0
1.182749779E1,-4.667600706E0,3.300991217E0,-3.000925851E0,6.456670607E0
1.183745679E1,-4.544287605E0,3.828052804E0,-2.741594236E0,6.543766275E0
1.184741479E1,-4.376697049E0,4.310883129E0,-2.332793170E0,6.571233855E0
1.185737279E1,-4.058344223E0,4.710011730E0,-1.724500601E0,6.451997416E0
1.186733179E1,-3.458702318E0,4.876809404E0,-7.165444109E-1,6.021571853E0
1.187728979E1,-2.477669340E0,4.066315148E0,1.043150581E0,4.874620742E0
1.188724879E1,-1.003076397E0,2.195426579E0,5.125420150E0,5.665332455E0
1.189720679E1,5.568648452E-1,4.532469213E-2,7.142784394E0,7.164601991E0
1.190716479E1,2.692712975E0,-2.975523500E0,7.591697359E0,8.587101493E0
1.191712379E1,7.196989253E0,-6.089780377E0,1.332755045E1,1.632500170E1
1.192708179E1,1.002293805E1,-7.641270638E0,1.069841425E1,1.653191978E1
1.193703979E1,1.005750445E1,-8.707112217E0,2.526733911E0,1.354073791E1
1.194699879E1,1.045431405E1,-8.332957073E0,-3.332842755E-1,1.337317966E1
1.195695679E1,1.160945255E1,-6.427926612E0,5.449473426E-2,1.327029008E1
1.196691579E1,1.185532329E1,-2.095567245E0,2.524466946E0,1.230093597E1
1.197687379E1,9.050850145E0,2.825508505E0,3.456435353E0,1.009199346E1
1.198683179E1,4.293732660E0,4.061806360E0,1.754543449E0,6.165454872E0
1.199679079E1,1.202852951E0,3.475683802E0,-1.338339955E-2,3.677963054E0
1.200674879E1,-4.954275656E-1,2.294515250E0,-1.268202603E0,2.668067943E0
1.201670779E1,-1.376180795E0,-2.324233139E-1,-1.558713473E0,2.092243262E0
1.202666579E1,-1.815189747E0,-4.853678988E0,-6.964668265E-1,5.228592504E0
1.203662379E1,-2.081540945E0,-1.063937492E1,-9.298476219E-2,1.084148318E1
1.204658279E1,-2.092170598E0,-1.320399060E1,-3.912198038E-1,1.337443825E1
1.205654079E1,-2.314189084E0,-1.202834825E1,-4.046426721E-1,1.225562599E1
1.206649979E1,-2.657058115E0,-8.868450930E0,-9.713742551E-1,9.308756505E0
1.207645779E1,-3.035171531E0,-4.377349598E0,-1.863098323E0,5.643101195E0
1.208641579E1,-3.623079244E0,-9.494720471E-1,-2.356698634E0,4.425181220E0
1.209637479E1,-4.151181343E0,1.952751927E0,-2.444590033E0,5.198227300E0
1.210633279E1,-4.723017984E0,4.729629723E0,-2.357290811E0,7.087532446E0
1.211629079E1,-5.109037421E0,6.399022071E0,-2.331990640E0,8.513984213E0
1.212624979E1,-4.906404501E0,6.414723015E0,-2.277472955E0,8.390968928E0
1.213620779E1,-4.526288121E0,6.009604526E0,-2.568576586E0,7.949856375E0
1.214616679E1,-4.073777949E0,5.045218570E0,-3.331794934E0,7.290456411E0
1.215612479E1,-3.481240703E0,3.300312356E0,-3.876784669E0,6.167702802E0
1.216608279E1,-2.789748688E0,1.350807973E0,-4.181790056E0,5.205261568E0
1.217604179E1,-2.145649525E0,-4.742799407E-1,-4.300118989E0,4.829055463E0
1.218599979E1,-1.572730857E0,-1.899576763E0,-4.250598335E0,4.914210052E0
1.219595879E1,-1.086734265E0,-2.653426117E0,-4.048006346E0,4.960646823E0
1.220591679E1,-8.158003119E-1,-2.671453668E0,-3.633101957E0,4.582752958E0
1.221587479E1,-6.823718208E-1,-2.142619790E0,-3.087920433E0,3.819908830E0
1.222583379E1,-5.394799036E-1,-1.318440710E0,-2.573874164E0,2.941794127E0
1.223579179E1,-3.172248977E-1,-5.173101854E-1,-2.203809732E0,2.285830002E0
1.224575079E1,-5.426800847E-2,1.825056338E-1,-1.875054710E0,1.884697187E0
1.225570879E1,2.142349648E-1,8.766590095E-1,-1.023307251E0,1.364399270E0
1.226566679E1,1.197961755E0,2.083993852E0,6.035159197E0,6.496251940E0
1.227562579E1,1.544146158E0,3.423908461E0,8.891588947E0,9.652351554E0
1.228558379E1,3.275428945E-1,2.837861332E0,1.028717022E0,3.036280619E0
1.229554179E1,-1.669228041E-1,2.286327978E0,-8.378147864E-1,2.440715564E0
1.230550079E1,-3.374720514E-1,2.284711808E0,-9.470360970E-1,2.496131567E0
1.231545879E1,-2.325920060E-1,2.254037315E0,-1.222224777E0,2.574610002E0
1.232541779E1,8.574357033E-3,2.195129541E0,-1.348122346E0,2.576063097E0
1.233537579E1,3.460420230E-1,2.164281385E0,-1.121367323E0,2.461975562E0
1.234533379E1,7.175679660E-1,2.221480603E0,-1.819536201E-1,2.341577881E0
1.235529279E1,1.275948117E0,2.145242266E0,2.015646333E0,3.208260918E0
1.236525079E1,1.865146311E0,1.864951891E0,4.476326587E0,5.195605454E0
1.237520979E1,1.902505926E0,1.561921109E0,3.377818369E0,4.179567356E0
1.238516779E1,1.642620579E0,1.180447006E0,1.979242737E0,2.830028147E0
1.239512579E1,1.346785673E0,6.885891652E-1,1.922516559E0,2.446233147E0
1.240508479E1,1.001463735E0,3.424053472E-1,2.193677677E0,2.435650382E0
1.241504279E1,7.430264506E-1,4.267800844E-1,2.442626245E0,2.588561864E0
1.242500079E1,5.534351608E-1,7.847121280E-1,2.258305782E0,2.453978119E0
1.243495979E1,4.782890841E-1,9.572014815E-1,1.741869317E0,2.044285655E0
1.244491779E1,5.369702786E-1,7.140719157E-1,1.082516522E0,1.403594600E0
1.245487679E1,8.477632391E-1,2.158160520E-1,3.805249541E-1,9.539802506E-1
1.246483479E1,1.416108215E0,-2.228292024E-1,4.693560004E-2,1.434300624E0
1.247479279E1,1.941260979E0,-5.508445519E-1,7.037110882E-1,2.137085212E0
1.248475179E1,2.435941416E0,-7.748168850E-1,2.820941244E0,3.806817738E0
1.249470979E1,3.037629116E0,-7.032843876E-1,3.792252642E0,4.909478555E0
1.250466879E1,3.251426709E0,-2.050981057E-1,9.793559968E-1,3.401908148E0
1.251462679E1,3.516206176E0,3.581302643E-1,-6.769836116E-1,3.598648353E0
1.252458479E1,4.014485428E0,6.892405450E-1,-7.600725460E-1,4.143531834E0
1.253454379E1,4.665522020E0,6.504466081E-1,1.111102536E-2,4.710658125E0
1.254450179E1,5.476220344E0,1.431094337E-1,1.975470260E0,5.823396974E0
1.255446079E1,5.985384189E0,-1.049622572E0,4.425863947E0,7.517632813E0
1.256441879E1,5.740631436E0,-2.411212810E0,4.112032773E0,7.461743096E0
1.257437679E1,5.098014835E0,-2.933855072E0,2.428781501E0,6.363665643E0
1.258433579E1,4.607870521E0,-2.362255243E0,1.994753062E0,5.549032379E0
1.259429379E1,4.259432309E0,-1.610838915E0,4.232458811E-1,4.573478182E0
1.260425179E1,4.030422307E0,-1.333679724E0,-7.595451272E-1,4.312761804E0
1.261421079E1,3.766073488E0,-1.299116247E0,-7.058947308E-1,4.045899148E0
1.262416879E1,3.459518882E0,-1.438523809E0,-6.957148746E-2,3.747327292E0
1.263412779E1,2.980614378E0,-1.671687380E0,7.213758190E-1,3.492704373E0
1.264408579E1,2.342284078E0,-1.903714253E0,9.313164425E-1,3.158761304E0
1.265404379E1,1.463135324E0,-1.877883008E0,4.345077646E-1,2.419918711E0
1.266400279E1,4.851025522E-1,-1.889692630E0,2.869345665E-1,1.971951867E0
1.267396079E1,-4.732502460E-2,-2.302307249E0,3.827131283E-1,2.334379504E0
1.268391954E1,-3.839328575E-1,-3.178265178E0,4.109610271E-1,3.227640461E0
1.269387754E1,-8.154307678E-1,-4.438595089E0,1.253439553E0,4.683712674E0
1.270383554E1,-1.027177158E0,-5.700677996E0,1.903723608E0,6.097293343E0
1.271379454E1,-9.905808967E-1,-6.562159973E0,1.174896317E0,6.739701431E0
1.272375254E1,-1.301115995E0,-7.626910461E0,1.018270386E0,7.803815771E0
1.273371054E1,-1.873865679E0,-8.968571634E0,1.367045106E0,9.263663534E0
1.274366954E1,-2.409055480E0,-9.217137356E0,-1.275722122E-1,9.527614813E0
1.275362754E1,-2.896304253E0,-7.756213449E0,-7.715493147E-1,8.315209783E0
1.276358654E1,-3.434316505E0,-5.797155300E0,1.970954601E-1,6.740948454E0
1.277354454E1,-3.474286317E0,-3.930951521E0,6.245504594E-1,5.283285772E0
1.278350254E1,-3.271282684E0,-2.491341299E0,-3.965470558E-1,4.131019419E0
1.279346154E1,-3.255824400E0,-1.578601461E0,-1.949805515E0,4.110245326E0
1.280341954E1,-3.274277043E0,-1.151405640E0,-2.050304241E0,4.031175088E0
1.281337854E1,-3.228444813E0,-3.528964216E-1,-1.796650272E0,3.711515054E0
1.282333654E1,-3.190776465E0,3.789165312E-1,-2.041516753E0,3.806891493E0
1.283329454E1,-3.040401281E0,9.137923372E-1,-2.195907220E0,3.860189750E0
1.284325354E1,-2.740753698E0,1.409395904E0,-2.424046864E0,3.920985953E0
1.285321154E1,-2.502049890E0,1.833385112E0,-2.618328498E0,4.059211592E0
1.286317054E1,-2.339069279E0,2.480398235E0,-2.679797937E0,4.336466013E0
1.287312854E1,-2.220215850E0,3.226417583E0,-2.738564501E0,4.779002445E0
1.288308654E1,-2.269249431E0,3.962758620E0,-2.889019207E0,5.403645143E0
1.289304554E1,-2.462485290E0,4.502576492E0,-3.005605378E0,5.947326505E0
1.290300354E1,-2.865629175E0,4.724198245E0,-2.998695723E0,6.286656954E0
1.291296154E1,-3.446954677E0,4.585202912E0,-2.855802344E0,6.407900539E0
1.292292054E1,-4.113263027E0,4.275936075E0,-2.619475721E0,6.485693109E0
1.293287854E1,-4.721701484E0,3.953883131E0,-2.370755048E0,6.599101167E0
1.294283754E1,-5.196820500E0,3.772370939E0,-2.264523711E0,6.809243236E0
1.295279554E1,-5.517191784E0,3.687782194E0,-2.391112422E0,7.053833093E0
1.296275354E1,-5.696338193E0,3.706465802E0,-2.644954671E0,7.292595064E0
1.297271254E1,-5.693009373E0,3.884952645E0,-2.863444070E0,7.463412404E0
1.298267054E1,-5.530027007E0,4.211033151E0,-2.855910518E0,7.514667244E0
1.299262954E1,-5.219314739E0,4.619766973E0,-2.577390971E0,7.431449216E0
1.300258754E1,-4.828348850E0,5.060966291E0,-2.059472091E0,7.291622434E0
1.301254554E1,-4.330401134E0,5.461649083E0,-1.556382919E0,7.141730356E0
1.302250454E1,-3.503404866E0,5.312718746E0,-7.952242523E-1,6.413361657E0
1.303246254E1,-2.345183128E0,4.078925253E0,3.224888536E-1,4.716090985E0
1.304242054E1,-9.557759303E-1,2.327449692E0,2.485615121E0,3.536779924E0
1.305237954E1,8.339538699E-1,2.973817867E-1,4.977984361E0,5.056109501E0
1.306233754E1,3.179555073E0,-2.932513720E0,6.750544982E0,8.017422575E0
1.307229654E1,7.685202523E0,-7.044746468E0,1.385202581E1,1.733693773E1
1.308225454E1,1.053457761E1,-8.826329927E0,1.232650713E1,1.846142474E1
1.309221254E1,1.111123235E1,-9.695725526E0,2.832450027E0,1.501630284E1
1.310217154E1,1.245251814E1,-9.357766986E0,-1.941801846E-1,1.557789193E1
1.311212954E1,1.424624860E1,-7.289047231E0,1.888817301E-1,1.600379596E1
1.312208854E1,1.449179658E1,-2.306013215E0,2.352195693E0,1.486144978E1
1.313204654E1,1.027498930E1,2.846904636E0,3.771990286E0,1.130964994E1
1.314200454E1,3.874306034E0,3.622320861E0,2.703243810E0,5.953064989E0
1.315196354E1,2.391142827E-1,2.684427470E0,1.026855122E0,2.884052344E0
1.316192154E1,-1.708812522E0,5.925457245E-1,7.921562183E-1,1.974503012E0
1.317187954E1,-2.442015358E0,-3.425382544E0,1.166093845E0,4.365370481E0
1.318183854E1,-2.803272713E0,-9.173110161E0,2.115318994E0,9.822365417E0
1.319179654E1,-3.151283201E0,-1.389968062E1,2.083994875E0,1.440398354E1
1.320175554E1,-3.121824929E0,-1.377222301E1,5.340538336E-1,1.413170659E1
1.321171354E1,-2.713804174E0,-1.120754535E1,-1.271226783E0,1.160128542E1
1.322167154E1,-2.855012093E0,-6.935716946E0,-2.033439994E0,7.771109433E0
1.323163054E1,-3.439151568E0,-2.337568299E0,-2.290247952E0,4.747338701E0
1.324158854E1,-4.096788497E0,1.571535101E0,-2.454113832E0,5.027531528E0
1.325154754E1,-4.607021213E0,4.681539298E0,-2.628178425E0,7.074515990E0
1.326150554E1,-4.774619955E0,6.885402240E0,-3.104423615E0,8.935502543E0
1.327146354E1,-4.537066294E0,8.354789407E0,-3.984999089E0,1.030862233E1
1.328142254E1,-4.170472477E0,8.898278747E0,-5.166447723E0,1.110244961E1
1.329138054E1,-3.723007868E0,8.186426434E0,-6.883790163E0,1.132541091E1
1.330133854E1,-3.120268400E0,6.510391649E0,-8.133117954E0,1.087514974E1
1.331129754E1,-2.551321453E0,4.551353381E0,-7.956794581E0,9.514969193E0
1.332125554E1,-2.050130287E0,2.533281623E0,-7.251405780E0,7.950058853E0
1.333121454E1,-1.639229486E0,4.950147521E-1,-6.119451488E0,6.354510164E0
1.334117254E1,-1.429011266E0,-1.378537223E0,-4.879983273E0,5.268460384E0
1.335113054E1,-1.314900806E0,-2.962564901E0,-3.765214532E0,4.968158149E0
1.336108954E1,-1.224149095E0,-4.083543384E0,-2.809132208E0,5.105398255E0
1.337104754E1,-1.055714786E0,-4.521192273E0,-2.083237807E0,5.088771270E0
1.338100654E1,-7.912121853E-1,-4.165727170E0,-1.364263000E0,4.454269088E0
1.339096454E1,-2.660860267E-1,-3.168252406E0,6.377090335E-2,3.180045881E0
1.340092254E1,7.470057732E-1,-9.976308846E-1,9.936587541E0,1.001444242E1
1.341088154E1,2.779880342E-1,1.413686591E0,8.812334617E0,8.929335279E0
1.342083954E1,-8.085649672E-1,1.930140159E0,5.244747788E-1,2.157380850E0
1.343079754E1,-1.337325463E0,2.246419562E0,-1.383895520E-1,2.618012970E0
1.344075654E1,-1.738500005E0,1.905357905E0,-1.009300758E0,2.769739885E0
1.345071454E1,-1.701395329E0,1.154704639E0,-1.931959813E0,2.821446010E0
1.346067354E1,-1.262821118E0,8.555990928E-1,-2.184642559E0,2.664475576E0
1.347063154E1,-6.958166161E-1,1.150822672E0,-2.064534903E0,2.463911108E0
1.348058954E1,-2.004782206E-1,1.689037238E0,-1.606276917E0,2.339479396E0
1.349054854E1,2.809742072E-1,2.352974542E0,-3.843737010E-1,2.400662168E0
1.350050654E1,8.135172665E-1,3.196535972E0,1.992674961E0,3.853622460E0
1.351046554E1,1.171905393E0,3.769877102E0,4.086089262E0,5.681677663E0
1.352042354E1,9.771530584E-1,3.452007841E0,2.858195025E0,4.586988667E0
1.353038154E1,8.144221231E-1,2.665056814E0,1.695535834E0,3.262001376E0
1.354034054E1,5.011093050E-1,1.980110464E0,2.315996604E0,3.088007166E0
1.355029854E1,8.821635783E-2,1.368848972E0,4.203134439E0,4.421297179E0
1.356025654E1,7.327584475E-2,8.132132113E-1,4.768500259E0,4.837900350E0
1.357021554E1,5.493692994E-1,4.016113293E-1,3.066815493E0,3.141409804E0
1.358017354E1,1.278118896E0,2.672265261E-1,1.147354542E0,1.738223338E0
1.359013254E1,1.821179927E0,4.334160894E-1,-3.538827007E-1,1.905197837E0
1.360009054E1,2.111631593E0,3.495792961E-1,-9.955095148E-1,2.360557744E0
1.361004854E1,2.362733838E0,-2.416203994E-1,-6.444320159E-1,2.460931577E0
1.362000754E1,2.609462949E0,-8.295778137E-1,8.242505617E-1,2.859525349E0
1.362996554E1,3.089737163E0,-1.153427607E0,3.985317470E0,5.172970744E0
1.363992454E1,3.519523593E0,-1.088053397E0,4.228833829E0,5.608381413E0
1.364988254E1,3.180967176E0,-7.849015778E-1,3.099256723E-1,3.290999329E0
1.365984054E1,3.362616193E0,-3.531858587E-1,-1.114705152E0,3.560125768E0
1.366979954E1,4.050377392E0,-1.689196283E-1,-1.140879336E0,4.211377034E0
1.367975754E1,4.884467210E0,-3.356676006E-1,-6.495356119E-1,4.938885418E0
1.368971621E1,5.749461901E0,-8.924429834E-1,1.105330896E0,5.922374779E0
1.369967521E1,6.497124317E0,-1.999606251E0,4.489892128E0,8.146789605E0
1.370963321E1,6.330761676E0,-3.312669861E0,4.663297155E0,8.532213392E0
1.371959221E1,5.617586138E0,-3.983486999E0,2.214828372E0,7.234010465E0
1.372955021E1,5.063437909E0,-3.514332728E0,1.481198104E0,6.338997224E0
1.373950821E1,4.560344644E0,-2.247227063E0,4.399249175E-1,5.102970378E0
1.374946721E1,4.181055645E0,-1.330464340E0,-6.728554042E-1,4.438929608E0
1.375942521E1,3.832474469E0,-6.392912900E-1,-7.673439972E-1,3.960476072E0
1.376938321E1,3.443234094E0,-9.991488218E-2,-2.422407889E-1,3.453190497E0
1.377934221E1,3.116485251E0,1.560949302E-1,5.621840938E-1,3.170630364E0
1.378930021E1,2.713696000E0,2.742706668E-1,1.245980844E0,2.998639466E0
1.379925921E1,1.954818333E0,1.871927619E-1,1.408570862E0,2.416697688E0
1.380921721E1,1.112494758E0,-2.785660315E-1,1.199482616E0,1.659518655E0
1.381917521E1,4.957900929E-1,-9.703495306E-1,7.666225970E-1,1.332327375E0
1.382913421E1,3.542477131E-2,-1.910143266E0,7.245343387E-1,2.043245511E0
1.383909221E1,-2.628457922E-1,-2.853265822E0,9.533838344E-1,3.019793784E0
1.384905121E1,-1.758225587E-1,-3.579667761E0,5.402276894E-1,3.624469728E0
1.385900921E1,8.461651951E-2,-4.308341929E0,-8.127410486E-2,4.309939165E0
1.386896721E1,9.953861386E-2,-5.351911463E0,-1.239931315E-1,5.354272924E0
1.387892621E1,-3.275376320E-1,-6.835412055E0,7.176170095E-1,6.880778519E0
1.388888421E1,-7.485310194E-1,-8.534997670E0,1.130798590E0,8.642059324E0
1.389884221E1,-1.161763982E0,-8.977295095E0,3.436993361E-3,9.052156350E0
1.390880121E1,-1.764545258E0,-7.937818612E0,2.212922618E-2,8.131609557E0
1.391875921E1,-2.415734462E0,-6.254079536E0,7.991206907E-1,6.751879568E0
1.392871821E1,-2.821091518E0,-4.280263599E0,3.666519964E-1,5.139420932E0
1.393867621E1,-3.035567973E0,-3.012650396E0,-1.350510495E0,4.484931875E0
1.394863421E1,-3.140954679E0,-2.022919099E0,-2.121148229E0,4.296168967E0
1.395859321E1,-3.321973366E0,-8.720607591E-1,-2.385215212E0,4.181536634E0
1.396855121E1,-3.349920133E0,3.509487140E-1,-2.657125943E0,4.290157127E0
1.397851021E1,-3.206999565E0,1.568893329E0,-2.771010700E0,4.519377478E0
1.398846821E1,-3.075460601E0,2.431614330E0,-2.691523651E0,4.755576277E0
1.399842621E1,-2.864463240E0,2.873237572E0,-2.634035288E0,4.837229134E0
1.400838521E1,-2.657550159E0,3.243281538E0,-2.479383159E0,4.871220466E0
1.401834321E1,-2.527326819E0,3.750209407E0,-2.252568494E0,5.052278324E0
1.402830121E1,-2.521195428E0,4.233001724E0,-2.135731185E0,5.369923434E0
1.403826021E1,-2.693201217E0,4.585845521E0,-2.325153490E0,5.804278654E0
1.404821821E1,-3.095693722E0,4.588941622E0,-2.591920718E0,6.112262906E0
1.405817721E1,-3.557426707E0,4.227047505E0,-2.794601584E0,6.191366037E0
1.406813521E1,-4.041249889E0,3.745915797E0,-2.922734545E0,6.237464472E0
1.407809321E1,-4.496837450E0,3.359501966E0,-3.038926321E0,6.383014468E0
1.408805221E1,-4.916852306E0,3.136192707E0,-3.204441116E0,6.654290658E0
1.409801021E1,-5.304053757E0,3.019973449E0,-3.376616181E0,6.975296605E0
1.410796921E1,-5.601575292E0,3.080579839E0,-3.456840857E0,7.267555752E0
1.411792721E1,-5.808712322E0,3.319921578E0,-3.398582416E0,7.504224181E0
1.412788521E1,-5.911774760E0,3.699478379E0,-3.146693137E0,7.650941040E0
1.413784421E1,-5.815011528E0,4.190438672E0,-2.640290932E0,7.638407657E0
1.414780221E1,-5.337151337E0,4.694585606E0,-1.914483654E0,7.361356265E0
1.415776021E1,-4.585728577E0,4.913710597E0,-1.055219527E0,6.803451085E0
1.416771921E1,-3.595952257E0,4.600812639E0,7.864505053E-3,5.839384507E0
1.417767721E1,-2.474468574E0,3.457580237E0,1.118246372E0,4.396399751E0
1.418763621E1,-1.397191011E0,1.679295777E0,2.436412848E0,3.272351539E0
1.419759421E1,-2.062926918E-1,-2.287536013E-1,4.138346997E0,4.149795267E0
1.420755221E1,1.912309660E0,-2.668294417E0,7.328674396E0,8.030329491E0
1.421751121E1,6.963264933E0,-5.588636574E0,1.767137796E1,1.979892715E1
1.422746921E1,9.143174171E0,-6.894142658E0,1.365142188E1,1.781819733E1
1.423742721E1,9.056982704E0,-7.713445745E0,1.818678488E0,1.203469037E1
1.424738621E1,9.869817016E0,-8.509333071E0,-3.453954964E0,1.348153708E1
1.425734421E1,1.274101040E1,-9.387871376E0,-1.647145154E0,1.591158578E1
1.426730321E1,1.438546730E1,-5.719412475E0,6.551775903E-2,1.548087985E1
1.427726121E1,1.246735018E1,8.866671038E-1,1.943236607E0,1.264899868E1
1.428721921E1,7.519107100E0,4.304393889E0,2.081597955E0,8.910545908E0
1.429717821E1,3.625028706E0,4.947320977E0,2.974746113E-1,6.140464894E0
1.430713621E1,1.438736063E0,4.405095806E0,-1.789466676E0,4.967597156E0
1.431709521E1,-4.818105698E-3,2.950462918E0,-2.822525255E0,4.083124228E0
1.432705321E1,-1.042422895E0,-5.819464767E-1,-1.719157269E0,2.093038201E0
1.433701121E1,-1.539562526E0,-6.821084622E0,7.264476939E-1,7.030304008E0
1.434697021E1,-1.427542153E0,-1.142875955E1,6.523216639E-1,1.153602813E1
1.435692821E1,-1.457074100E0,-1.133128296E1,-1.214264670E0,1.148892846E1
1.436688621E1,-1.677212122E0,-1.018413292E1,-1.864332086E0,1.048834296E1
1.437684521E1,-2.572282844E0,-7.256339661E0,-1.800697861E0,7.906555324E0
1.438680321E1,-3.778326036E0,-3.047847126E0,-1.784820624E0,5.172108312E0
1.439676221E1,-4.945468580E0,7.724189419E-1,-1.712620959E0,5.290308218E0
1.440672021E1,-5.818738543E0,3.531007233E0,-1.780738098E0,7.035393271E0
1.441667821E1,-5.884892771E0,3.935105383E0,-2.061022919E0,7.373251167E0
1.442663721E1,-5.668790206E0,4.122634360E0,-2.501551123E0,7.442382312E0
1.443659521E1,-5.561266342E0,4.708172781E0,-2.682023680E0,7.764523506E0
1.444655321E1,-5.327292346E0,4.377012214E0,-2.969178686E0,7.506950229E0
1.445651221E1,-4.728907300E0,3.116771765E0,-3.599696814E0,6.710785918E0
1.446647021E1,-3.918296977E0,1.689306795E0,-4.067350397E0,5.894925606E0
1.447642921E1,-2.944887598E0,3.548236638E-1,-4.411055288E0,5.315606415E0
1.448638721E1,-1.989929401E0,-7.781486285E-1,-4.760422330E0,5.217945484E0
1.449634521E1,-1.114812887E0,-1.536690958E0,-5.129534250E0,5.469583942E0
1.450630421E1,-3.796582505E-1,-1.747617568E0,-5.365289308E0,5.655496168E0
1.451626221E1,3.277744442E-2,-1.498898064E0,-5.208174623E0,5.419672746E0
1.452622121E1,9.874660850E-2,-1.006108178E0,-4.642291617E0,4.751092087E0
1.453617921E1,-8.957261950E-2,-6.407127482E-1,-3.902915876E0,3.956170928E0
1.454613721E1,-3.649922642E-1,-3.891111517E-1,-3.173648801E0,3.218178608E0
1.455609621E1,-5.803265056E-1,1.025660098E-2,-2.527274194E0,2.593067470E0
1.456605421E1,-7.004742157E-1,4.786922497E-1,-1.997572589E0,2.170278011E0
1.457601221E1,-7.676017132E-1,9.597093523E-1,-1.269357428E0,1.766783153E0
1.458597121E1,-7.214180651E-1,1.572530297E0,1.274546832E0,2.148898598E0
1.459592921E1,-8.383310956E-1,3.092155572E0,1.234594094E1,1.275486114E1
1.460588821E1,-1.317779098E0,3.822310254E0,6.207673109E0,7.408225351E0
1.461584621E1,-1.155778188E0,3.144950666E0,1.215754906E-2,3.350624676E0
1.462580421E1,-9.236764705E-1,2.848116764E0,-6.010200942E-1,3.053878268E0
1.463576321E1,-7.122838372E-1,2.458115666E0,-1.112564925E0,2.790605956E0
1.464572121E1,-4.034105176E-1,1.964756845E0,-1.414670677E0,2.454445484E0
1.465567921E1,6.803790897E-2,1.600690488E0,-1.280100517E0,2.050730730E0
1.466563821E1,4.921820685E-1,1.304677534E0,-4.654909909E-1,1.470070923E0
1.467559621E1,9.483645844E-1,8.586408144E-1,1.030967104E0,1.643031528E0
1.468555521E1,1.584029724E0,3.139370084E-1,2.909864531E0,3.327914992E0
1.469551596E1,2.268211550E0,2.736379981E-2,4.284411614E0,4.847856773E0
1.470547396E1,3.087946161E0,4.659722167E-1,5.854597178E0,6.635423853E0
1.471543296E1,3.696173533E0,1.157403129E0,7.519520499E0,8.458396380E0
1.472539096E1,3.197834931E0,1.691661469E0,3.757427795E0,5.215949617E0
1.473534996E1,2.611755350E0,1.780165510E0,5.845976043E-1,3.214344351E0
1.474530796E1,2.546005749E0,1.500915939E0,-5.309751284E-1,3.002803443E0
1.475526596E1,2.597002825E0,8.604598832E-1,-1.275374798E0,3.018508863E0
1.476522496E1,2.638210493E0,2.530183768E-1,-1.142868559E0,2.886229624E0
1.477518296E1,2.693514043E0,-3.838790631E-1,4.823837431E-1,2.763163967E0
1.478514096E1,3.119755891E0,-1.099557209E0,3.700740209E0,4.963605642E0
1.479509996E1,3.960857398E0,-1.190205424E0,3.893397778E0,5.680099166E0
1.480505796E1,4.231400464E0,-6.414623612E-1,3.664438355E-1,4.295405096E0
1.481501696E1,4.572315649E0,-3.082728106E-1,-9.781713510E-1,4.685928052E0
1.482497496E1,5.168917002E0,-4.139881307E-1,-6.892709506E-1,5.231078626E0
1.483493296E1,5.803887200E0,-9.556940693E-1,7.634370339E-1,5.931382123E0
1.484489196E1,6.398121600E0,-1.958425480E0,3.660649359E0,7.627040324E0
1.485484996E1,6.227926109E0,-3.033838366E0,5.294380124E0,8.719042364E0
1.486480796E1,5.201338059E0,-3.055426286E0,3.021567692E0,6.746808039E0
1.487476696E1,4.399017041E0,-1.977662235E0,8.277857883E-1,4.893641604E0
1.488472496E1,3.819846822E0,-1.092138847E0,-3.429159553E-1,3.987679570E0
1.489468396E1,3.269911220E0,-6.778413981E-1,-8.258662936E-1,3.440035390E0
1.490464196E1,2.822919942E0,-5.133843648E-1,-4.438398477E-1,2.903348811E0
1.491459996E1,2.531322221E0,-7.461368769E-1,5.144943126E-1,2.688683102E0
1.492455896E1,2.431072294E0,-1.163700580E0,1.236861527E0,2.965491186E0
1.493451696E1,2.279953344E0,-1.328859864E0,7.707215682E-1,2.749193977E0
1.494447496E1,2.059629381E0,-1.439148876E0,-2.860738381E-1,2.528845767E0
1.495443396E1,1.738456736E0,-1.660016922E0,-7.253611350E-1,2.510784097E0
1.496439196E1,1.281277562E0,-2.237655755E0,-2.331577607E-1,2.589041910E0
1.497435096E1,7.702730137E-1,-2.960525392E0,3.130832784E-1,3.075069471E0
1.498430896E1,2.568915725E-1,-3.829819248E0,7.120873708E-1,3.903918183E0
1.499426696E1,-2.899435437E-1,-4.956591738E0,1.202870931E0,5.108695273E0
1.500422596E1,-7.816259676E-1,-6.067825837E0,1.388163494E0,6.273471720E0
1.501418396E1,-1.276515589E0,-7.461069977E0,1.582830606E0,7.733201793E0
1.502414296E1,-1.871655431E0,-9.045345576E0,2.388648405E0,9.540807714E0
1.503410096E1,-2.338551216E0,-9.654986220E0,1.504865148E0,1.004749719E1
1.504405896E1,-2.416426188E0,-8.417018400E0,-7.334655221E-1,8.787678074E0
1.505401796E1,-2.664272118E0,-6.316418456E0,-7.684687091E-1,6.898262983E0
1.506397596E1,-2.960433006E0,-4.209263198E0,-2.082744594E-1,5.150285284E0
1.507393396E1,-3.132621228E0,-2.516127062E0,-2.813810273E-1,4.027826514E0
1.508389296E1,-3.231583014E0,-1.360443015E0,-1.052401169E0,3.660803490E0
1.509385096E1,-3.361605209E0,-6.405344081E-1,-2.241807717E0,4.091011580E0
1.510380996E1,-3.452370953E0,3.412668943E-2,-2.770326869E0,4.426594717E0
1.511376796E1,-3.518935071E0,8.682770258E-1,-2.761570956E0,4.556652628E0
1.512372596E1,-3.335371676E0,1.685111418E0,-2.496617242E0,4.494152018E0
1.513368496E1,-3.134589400E0,2.387760213E0,-2.420739094E0,4.624611044E0
1.514364296E1,-2.991063060E0,2.867795568E0,-2.407581982E0,4.792406561E0
1.515360096E1,-2.711041657E0,3.132875581E0,-2.393163040E0,4.784546542E0
1.516355996E1,-2.315036638E0,3.290678483E0,-2.206760822E0,4.588872720E0
1.517351796E1,-2.018229632E0,3.482044403E0,-1.993008837E0,4.491098785E0
1.518347696E1,-1.989705745E0,3.754366778E0,-2.065925663E0,4.724642600E0
1.519343496E1,-2.420312247E0,3.910362890E0,-2.319679327E0,5.150704950E0
1.520339296E1,-3.079610370E0,3.871767758E0,-2.563766959E0,5.572027156E0
1.521335196E1,-3.649315116E0,3.764145076E0,-2.714092734E0,5.903608078E0
1.522330996E1,-4.130441562E0,3.674558716E0,-2.860613433E0,6.224631593E0
1.523326796E1,-4.607967877E0,3.655009720E0,-3.041500558E0,6.621419006E0
1.524322696E1,-5.007751366E0,3.673792731E0,-3.152886508E0,6.965272436E0
1.525318496E1,-5.303580717E0,3.765157814E0,-3.209119765E0,7.252780947E0
1.526314396E1,-5.466716280E0,3.995355093E0,-3.189340389E0,7.484633680E0
1.527310196E1,-5.533730634E0,4.317853010E0,-2.984875829E0,7.627287398E0
1.528305996E1,-5.501481485E0,4.654470783E0,-2.695419066E0,7.693872935E0
1.529301896E1,-5.290912140E0,4.940755724E0,-2.436530377E0,7.638160686E0
1.530297696E1,-4.898966843E0,5.113494169E0,-2.231946242E0,7.424909613E0
1.531293596E1,-4.346311701E0,5.128896319E0,-2.022099904E0,7.020319856E0
1.532289396E1,-3.527410026E0,4.557669543E0,-1.628744259E0,5.988971616E0
1.533285196E1,-2.446315108E0,3.200208024E0,-4.971954712E-1,4.058693427E0
1.534281096E1,-9.609717661E-1,1.195499493E0,2.528872530E0,2.957681870E0
1.535276896E1,2.541903635E0,-2.832252683E0,1.131167140E1,1.193469058E1
1.536272696E1,9.214609605E0,-7.638605477E0,2.306951576E1,2.598961102E1
1.537268596E1,1.060762570E1,-8.623436222E0,1.456051422E1,1.997232960E1
1.538264396E1,9.507794260E0,-8.588444729E0,5.481530786E-2,1.281259300E1
1.539260296E1,1.036464934E1,-7.864736602E0,-4.242346160E0,1.368493839E1
1.540256096E1,1.284764724E1,-7.578997791E0,-1.762060776E0,1.502025650E1
1.541251896E1,1.399183976E1,-5.556790883E0,4.734297556E-1,1.506232520E1
1.542247796E1,1.149665040E1,-1.222217760E0,2.626015247E0,1.185591594E1
1.543243596E1,5.765282713E0,-1.930750608E-1,2.927283971E0,6.468752135E0
1.544239396E1,1.415145471E0,-1.866755172E0,2.366373876E0,3.329735259E0
1.545235296E1,-1.297408276E0,-4.591681042E0,3.662220214E0,6.014869901E0
1.546231096E1,-2.741655924E0,-8.222754600E0,3.782169703E0,9.457017399E0
1.547226996E1,-3.202428796E0,-1.189010253E1,9.573494160E-1,1.235097592E1
1.548222796E1,-2.995915080E0,-1.255937132E1,-2.065900227E0,1.307598023E1
1.549218596E1,-2.076512924E0,-9.551396363E0,-3.594650667E0,1.041453752E1
1.550214496E1,-1.618075722E0,-6.053157511E0,-3.631920819E0,7.242218841E0
1.551210296E1,-2.150506807E0,-2.586907607E0,-2.761063417E0,4.352038797E0
1.552206096E1,-2.821956906E0,9.028387481E-1,-2.437523673E0,3.836675675E0
1.553201996E1,-3.411216787E0,3.868033141E0,-2.224224847E0,5.616516405E0
1.554197796E1,-3.949553853E0,6.166122209E0,-2.105946492E0,7.619386416E0
1.555193696E1,-4.290799112E0,7.724653103E0,-2.186285188E0,9.102805365E0
1.556189496E1,-4.464789738E0,8.696173831E0,-2.322894126E0,1.004756806E1
1.557185296E1,-4.379630305E0,8.777944803E0,-3.008986530E0,1.026096859E1
1.558181196E1,-3.943737920E0,7.599606303E0,-4.580086598E0,9.710009165E0
1.559176996E1,-3.383237568E0,5.957071386E0,-5.822835102E0,8.991017994E0
1.560172796E1,-2.751111456E0,4.117747841E0,-6.397912855E0,8.090596420E0
1.561168696E1,-2.192549164E0,2.229388962E0,-6.628442840E0,7.328963192E0
1.562164496E1,-1.905160269E0,4.849394149E-1,-6.372483898E0,6.668834450E0
1.563160396E1,-1.886266454E0,-1.073759878E0,-5.508025689E0,5.920245637E0
1.564156196E1,-2.003869748E0,-2.356777571E0,-4.459501809E0,5.427435018E0
1.565151996E1,-2.001140560E0,-3.158889844E0,-3.516115251E0,5.132856422E0
1.566147896E1,-1.687187472E0,-3.225453377E0,-2.842269548E0,4.618294841E0
1.567143696E1,-1.126912823E0,-2.704241345E0,-2.511415375E0,3.858764174E0
1.568139596E1,-5.515821782E-1,-1.961967723E0,-2.309029208E0,3.079801314E0
1.569135096E1,-5.778101563E-2,-1.127978770E0,-1.933166824E0,2.238930263E0
1.570130896E1,3.665438229E-1,-2.537539566E-1,-1.176965573E0,1.258567998E0
1.571126796E1,5.865602222E-1,5.444517910E-1,1.153329885E0,1.403798586E0
1.572122596E1,9.461245161E-1,2.366814902E0,1.242759263E1,1.268629271E1
1.573118396E1,-1.098984182E-1,3.434117700E0,6.960276421E0,7.762131788E0
1.574114296E1,-8.872547489E-1,2.955981520E0,7.567361248E-1,3.177687414E0
1.575110096E1,-1.199854207E0,3.010393955E0,9.447299552E-1,3.375594254E0
1.576105996E1,-1.428095007E0,2.684721000E0,6.681620635E-2,3.041651953E0
1.577101796E1,-1.175578029E0,1.882983534E0,-1.337569292E0,2.591660144E0
1.578097596E1,-5.036323786E-1,1.447206924E0,-2.086323967E0,2.588590572E0
1.579093496E1,2.398419687E-1,1.410235564E0,-1.976872276E0,2.440146002E0
1.580089296E1,7.935092640E-1,1.413256820E0,-1.264190243E0,2.055511801E0
1.581085096E1,1.151402131E0,1.290629598E0,2.168194342E-1,1.743118555E0
1.582080996E1,1.437639710E0,9.843419176E-1,3.703986583E0,4.093318159E0
1.583076796E1,1.794259053E0,4.418390036E-1,8.985444360E0,9.173483395E0
1.584072696E1,1.925667332E0,4.006722665E-1,7.142209028E0,7.408095756E0
1.585068496E1,1.830415019E0,8.053925604E-1,1.982123076E0,2.815650583E0
1.586064296E1,1.907849696E0,1.099629714E0,1.072259921E0,2.449248315E0
1.587060196E1,1.945311053E0,1.315998328E0,1.106640380E0,2.596293439E0
1.588055996E1,2.087461104E0,1.258074641E0,8.876811571E-1,2.593881936E0
1.589051796E1,2.169773090E0,8.043938559E-1,3.147531335E-1,2.335387392E0
1.590047696E1,2.282753868E0,2.174567807E-1,2.962000644E-1,2.312139085E0
1.591043496E1,2.591203557E0,-1.511201191E-1,1.436367648E0,2.966534204E0
1.592039396E1,3.156794202E0,-2.226157790E-1,3.281586355E0,4.558916146E0
1.593035196E1,3.668716178E0,8.615287542E-3,3.000578234E0,4.739517102E0
1.594030996E1,3.706994390E0,2.975800073E-1,4.425241511E-1,3.745155390E0
1.595026896E1,4.053852100E0,4.371331644E-1,-7.486261828E-1,4.145508825E0
1.596022696E1,4.840793771E0,3.936637938E-1,-4.904879840E-1,4.881478668E0
1.597018496E1,5.875291643E0,1.677039921E-1,1.223091334E0,6.003593002E0
1.598014396E1,6.745680683E0,-4.742010033E-1,3.466976713E0,7.599276413E0
1.599010196E1,6.770731909E0,-1.720954265E0,3.471208928E0,7.800883642E0
1.600006096E1,6.392425243E0,-2.831549848E0,2.355279661E0,7.377541413E0
1.601001896E1,5.741020276E0,-3.170425231E0,1.635528345E0,6.759131817E0
1.601997696E1,4.614715271E0,-2.687790788E0,8.500144172E-1,5.407618780E0
1.602993596E1,3.697041260E0,-1.871872655E0,-3.072353683E-2,4.144027661E0
1.603989396E1,3.148057292E0,-1.316031073E0,-4.539075105E-1,3.442126454E0
1.604985196E1,2.748454774E0,-7.707811368E-1,-2.951591869E-1,2.869708374E0
1.605981096E1,2.471157588E0,-2.103664470E-1,1.588560219E-1,2.485177882E0
1.606976896E1,2.127960528E0,-3.064291835E-2,4.176689529E-1,2.168779000E0
1.607972796E1,1.626041091E0,-4.641490549E-1,-2.739654650E-2,1.691210970E0
1.608968596E1,1.274598580E0,-1.301493725E0,-6.746026254E-1,1.942569473E0
1.609964396E1,1.194508682E0,-2.092738363E0,-1.250849236E0,2.714963841E0
1.610960296E1,1.202127897E0,-2.909683852E0,-1.443161820E0,3.463248134E0
1.611956096E1,1.076173609E0,-4.122144948E0,-8.498530340E-1,4.344246630E0
1.612951896E1,1.029854305E0,-5.754612129E0,4.306076717E-1,5.861875434E0
1.613947796E1,1.038811655E0,-7.596706669E0,1.360298004E0,7.787136349E0
1.614943596E1,6.929856867E-1,-9.812613705E0,2.797538348E0,1.022711287E1
1.615939496E1,6.344287455E-2,-1.157381494E1,4.082861599E0,1.227301822E1
1.616935296E1,-6.978499854E-1,-1.151220751E1,2.663712539E0,1.183694558E1
1.617931096E1,-1.533008382E0,-9.767084945E0,-3.731922533E-1,9.893701809E0
1.618926996E1,-2.466918064E0,-7.451415639E0,-1.428227008E0,7.978039367E0
1.619922796E1,-3.274346625E0,-5.193908587E0,-1.369858932E0,6.290830289E0
1.620918696E1,-3.795762725E0,-3.328859632E0,-1.364171784E0,5.229730947E0
1.621914496E1,-3.892120162E0,-1.586832587E0,-1.685313147E0,4.528456405E0
1.622910296E1,-3.845664033E0,-2.056980300E-1,-2.340815842E0,4.506757409E0
1.623906196E1,-3.820427451E0,9.169819933E-1,-2.701266574E0,4.767951655E0
1.624901996E1,-3.862130962E0,1.804335560E0,-2.927458218E0,5.171237183E0
1.625897796E1,-3.794840035E0,2.635288639E0,-2.725444518E0,5.364103366E0
1.626893696E1,-3.433757511E0,3.539211461E0,-2.398690706E0,5.483650747E0
1.627889496E1,-3.081179178E0,4.070902873E0,-2.263666802E0,5.584809999E0
1.628885396E1,-2.863635859E0,4.203668582E0,-2.341600538E0,5.599493992E0
1.629881196E1,-2.565214437E0,4.240580885E0,-2.292592393E0,5.460662161E0
1.630876996E1,-2.289881331E0,4.318034858E0,-2.119200229E0,5.327287411E0
1.631872896E1,-2.220581886E0,4.383686226E0,-2.076141626E0,5.334608972E0
1.632868696E1,-2.595477287E0,4.404462553E0,-2.266772550E0,5.592320674E0
1.633864496E1,-3.249870180E0,4.291526506E0,-2.539598370E0,5.952177402E0
1.634860396E1,-3.802395222E0,4.172457315E0,-2.770755762E0,6.288457439E0
1.635856196E1,-4.195704090E0,4.141523205E0,-3.016977335E0,6.622559891E0
1.636852096E1,-4.592418376E0,4.207647028E0,-3.218280306E0,7.010843614E0
1.637847896E1,-4.930333647E0,4.335463654E0,-3.420648639E0,7.403058292E0
1.638843696E1,-5.176372202E0,4.472984319E0,-3.597482181E0,7.729443443E0
1.639839596E1,-5.342986858E0,4.635076153E0,-3.634469036E0,7.952408735E0
1.640835396E1,-5.395291956E0,4.851376939E0,-3.498398480E0,8.055049685E0
1.641831196E1,-5.301763988E0,5.055392141E0,-3.239821448E0,8.010126971E0
1.642827096E1,-5.049467742E0,5.173793580E0,-2.904953454E0,7.791278397E0
1.643822896E1,-4.604061060E0,5.081081298E0,-2.642402362E0,7.348268887E0
1.644818796E1,-4.045861295E0,4.588277963E0,-2.440532211E0,6.586158650E0
1.645814596E1,-3.414737396E0,3.466267446E0,-1.989375670E0,5.256715423E0
1.646810396E1,-2.641503645E0,1.703697962E0,-7.601076293E-1,3.233866395E0
1.647806296E1,-1.513544755E0,-7.699636960E-1,1.616614795E0,2.344590628E0
