"Time (s)","Linear Acceleration x (m/s^2)","Linear Acceleration y (m/s^2)","Linear Acceleration z (m/s^2)","Absolute acceleration (m/s^2)"
1.627266667E-2,2.582530966E-1,1.619140792E-1,3.517948061E-2,3.068361563E-1
2.619666667E-2,6.745815754E-2,2.306141853E-3,-9.618465096E-2,1.175049292E-1
3.611966668E-2,-1.289328593E-1,-1.719958484E-2,-1.979925692E-1,2.368977952E-1
4.604366668E-2,-1.189496157E-1,7.466602027E-2,-2.406123394E-1,2.786006524E-1
5.596666667E-2,-1.165540114E-1,1.133506143E-1,-1.708006775E-1,2.358093950E-1
6.589066666E-2,2.420454919E-3,1.137640125E-1,-1.125881374E-1,1.600756003E-1
7.581366667E-2,2.720592499E-2,1.016994524E-1,-2.664751589E-2,1.085957231E-1
8.573766667E-2,6.006698459E-2,4.913356841E-2,-3.223657697E-2,8.403182181E-2
9.566066667E-2,2.648350149E-2,-6.537187099E-4,2.946879745E-2,3.962591604E-2
1.055846667E-1,5.914838701E-2,-9.279882073E-2,2.762780160E-2,1.134612191E-1
1.155076667E-1,9.165247411E-2,-1.831687081E-1,1.315974355E-2,2.052416392E-1
1.254316667E-1,1.354337937E-1,-2.001887834E-1,9.564992309E-2,2.599360869E-1
1.353546667E-1,1.119440666E-1,-1.078361052E-1,1.661913174E-1,2.275514307E-1
1.452786667E-1,-3.062917739E-2,-4.176256835E-2,1.965877756E-1,2.032953815E-1
1.552026667E-1,-2.767224044E-2,-3.375012875E-2,1.309200355E-1,1.380031876E-1
1.651256667E-1,1.171995440E-1,-7.444207191E-2,1.197729036E-1,1.833654919E-1
1.750496667E-1,2.445407912E-1,-1.893416137E-1,1.333723578E-1,3.368065187E-1
1.849726667E-1,2.937325394E-1,-3.172927254E-1,1.155289945E-1,4.475493569E-1
1.948966667E-1,2.598669282E-1,-4.322788060E-1,6.630713314E-2,5.087164459E-1
2.048196667E-1,1.405983469E-1,-4.156703746E-1,1.211075306E-2,4.389720103E-1
2.147436667E-1,3.877581060E-3,-1.154158509E-1,-1.404796484E-1,1.818526488E-1
2.246666667E-1,5.492757440E-2,6.781600714E-2,4.426137596E-2,9.785253525E-2
2.345906667E-1,1.370601967E-1,2.132678354E-1,8.703434318E-2,2.680366468E-1
2.445136667E-1,1.231119561E-1,2.120106840E-1,5.785966069E-2,2.518984403E-1
2.544376667E-1,5.589002609E-2,1.050165778E-1,7.684615463E-2,1.416245322E-1
2.643606667E-1,-5.753952563E-2,-1.071285921E-1,7.849185348E-2,1.447352871E-1
2.742846667E-1,-1.011919141E-2,-3.787013537E-1,1.191925675E-2,3.790239860E-1
2.842076667E-1,1.244199783E-2,-6.021871984E-1,1.242489472E-1,6.149975822E-1
2.941316667E-1,4.275367141E-2,-7.060454428E-1,-2.415163189E-2,7.077509061E-1
3.040546667E-1,-1.081588715E-2,-5.774406123E-1,-2.353372738E-1,6.236491615E-1
3.139786667E-1,-1.163379568E-1,-2.528979242E-1,-2.298359209E-1,3.609936714E-1
3.239016667E-1,-2.084134769E-1,2.011699462E-1,-1.667944577E-1,3.342542681E-1
3.338256667E-1,-2.126027146E-1,4.894832861E-1,3.218307495E-3,5.336704593E-1
3.437486667E-1,-2.655153385E-1,4.894482028E-1,7.616056859E-2,5.620127850E-1
3.536726667E-1,-2.492226568E-1,1.610551232E-1,5.025886506E-2,3.009595303E-1
3.635956667E-1,-2.508157307E-1,-1.574362814E-1,-4.251452029E-2,2.991691794E-1
3.735196667E-1,-5.875545412E-2,-4.997907579E-1,-5.794269115E-2,5.065573615E-1
3.834436667E-1,4.344919771E-2,-6.400911891E-1,-3.498359889E-2,6.425172491E-1
3.933666667E-1,-7.813195735E-2,-5.244472969E-1,5.929485977E-2,5.335404861E-1
4.032906667E-1,-1.878368327E-1,-6.388802308E-1,1.028072074E-1,6.738100229E-1
4.132136667E-1,-2.882197845E-1,-8.779711246E-1,2.136163294E-1,9.484386517E-1
4.231376667E-1,-4.059183884E-1,-8.759924269E-1,2.969470462E-1,1.010103964E0
4.330606667E-1,-4.903454581E-1,-7.215575212E-1,1.881590143E-1,8.924616179E-1
4.429846667E-1,-6.123926362E-1,-7.447154188E-1,-9.592064917E-3,9.642187530E-1
4.529076667E-1,-7.149750182E-1,-1.111210125E0,-1.308092308E-1,1.327813343E0
4.628316667E-1,-7.274371889E-1,-1.479150848E0,1.165496260E-2,1.648389497E0
4.727546667E-1,-8.140543333E-1,-8.948865348E-1,2.788668707E-1,1.241480205E0
4.826786667E-1,-4.328623581E-1,4.089829141E-1,8.619643718E-1,1.047673338E0
4.926016667E-1,1.288814038E-2,7.897161752E-1,1.067502188E0,1.327922687E0
5.025256667E-1,3.659471145E-1,4.662797803E-1,1.068504255E0,1.221898304E0
5.124486667E-1,6.756013298E-1,-5.021074247E-1,1.228852303E0,1.489505625E0
5.223726667E-1,7.872372481E-1,-1.082344760E0,1.134640357E0,1.754600070E0
5.322956667E-1,7.377195176E-1,-1.086946519E0,7.990202647E-1,1.537568277E0
5.422196667E-1,8.050484517E-1,-1.290405650E0,3.981392527E-1,1.572184663E0
5.521436667E-1,7.228044400E-1,-1.057259620E0,5.173768437E-1,1.381275846E0
5.620666667E-1,8.033691314E-1,-2.327197677E-1,7.951287965E-1,1.154032172E0
5.719906667E-1,1.033046885E0,2.565974575E-1,9.079847364E-1,1.399094137E0
5.819136667E-1,1.238432966E0,5.749602234E-1,1.007434180E0,1.696826184E0
5.918376667E-1,1.627289472E0,6.405478567E-1,9.817999868E-1,2.005568198E0
6.017606667E-1,1.566227583E0,5.443178898E-1,3.538131188E-1,1.695445231E0
6.116846667E-1,2.351042622E-1,1.332438945E0,-1.794143863E0,2.247135901E0
6.216076667E-1,5.603655732E-1,1.766926244E0,2.777029824E-1,1.874341717E0
6.315316667E-1,6.574539113E-1,1.426577362E0,1.026569486E0,1.876489682E0
6.414546667E-1,-4.464115262E-2,1.260502405E0,-2.473185841E-1,1.285311490E0
6.513786667E-1,-2.484394222E-1,7.337887269E-1,-5.876423226E-1,9.723638936E-1
6.613016667E-1,2.496024334E-1,-5.649837041E-1,-2.182670586E-1,6.550942448E-1
6.712256667E-1,-1.561914092E0,9.553216016E-1,-9.584978092E-1,2.066623586E0
6.811486667E-1,-2.154562728E0,2.790846795E0,-8.261004746E-1,3.621244037E0
6.910726667E-1,-1.716552189E0,2.207686436E0,-4.840138006E-1,2.838080368E0
7.009966667E-1,-1.739563614E0,1.024380727E0,-1.704797385E-1,2.025956757E0
7.109196667E-1,-1.176577611E0,-2.874643242E-1,-1.962525840E-1,1.226982350E0
7.208436667E-1,-7.699370912E-1,-1.404642702E0,-4.191057600E-1,1.655739679E0
7.307666667E-1,-2.518907413E-1,-1.625461632E0,-1.916438086E-1,1.655989678E0
7.406906667E-1,2.510791478E-1,-9.757851022E-1,1.444074424E-1,1.017865813E0
7.506136667E-1,1.932335204E-1,-3.547517431E-1,4.145792842E-2,4.060871242E-1
7.605376667E-1,-1.585291260E-1,1.834330022E-2,-2.265057854E-1,2.770791066E-1
7.704606667E-1,-1.532002076E0,4.765439826E-1,-8.629122055E-1,1.821741475E0
7.803846667E-1,-3.183078606E0,-6.401426446E-1,1.868068457E-2,3.246863253E0
7.903076667E-1,-1.814952642E0,-3.808544154E0,1.065004988E0,4.351240891E0
8.002316667E-1,-5.670553726E-1,-3.971382093E0,2.760112368E-2,4.011756392E0
8.101546667E-1,-2.871772259E-2,-3.299197876E0,-4.751717142E-1,3.333364591E0
8.200786667E-1,1.073450268E0,-3.700850721E0,4.668577775E-2,3.853669822E0
8.300026667E-1,1.723358932E0,-3.783480064E0,-4.074241195E-1,4.177401324E0
8.399256667E-1,1.749077033E0,-3.612926724E0,-1.133741201E0,4.171076491E0
8.498496667E-1,1.907718718E0,-3.607131549E0,-1.646815079E0,4.400316877E0
8.597726667E-1,7.685241115E-1,-3.579900481E0,-2.054160773E0,4.198320288E0
8.696966667E-1,-6.014972270E-2,-4.524089568E0,-3.439136950E0,5.683191653E0
8.796196667E-1,-2.747176865E-1,-2.979889616E0,-1.432615928E0,3.317770385E0
8.895426667E-1,-3.053991964E0,1.805780407E0,4.714281952E0,5.900183397E0
8.994656667E-1,-3.368860727E0,4.099291105E0,7.734761184E0,9.379762297E0
9.093896667E-1,-2.719798447E0,1.778640556E0,4.334170250E0,5.417185392E0
9.193126667E-1,-2.444722911E0,1.776384115E-3,7.581505662E-1,2.559583081E0
9.292366667E-1,-1.694493568E0,-4.014908767E-1,-2.088667823E-1,1.753889594E0
9.391596667E-1,-1.024951123E0,4.573306167E-1,1.159963624E0,1.614060627E0
9.490836667E-1,-2.323756590E-1,-5.720331073E-2,1.438079713E0,1.457855934E0
9.590076667E-1,-3.262737563E-1,-8.619860065E-1,3.805017114E-2,9.224544731E-1
9.689306667E-1,-1.878204605E-1,-5.527665317E-2,-4.603045106E-1,5.002122312E-1
9.788546667E-1,1.066379523E0,-1.476989132E-1,-1.667100239E0,1.984490732E0
9.887776667E-1,1.435453143E0,-7.550953960E-1,-2.183865026E0,2.720286977E0
9.987016667E-1,1.574354628E0,7.973467916E-1,-1.212948169E0,2.141400865E0
1.008624667E0,4.937422518E-1,1.740124362E0,1.865179932E-1,1.818406766E0
1.018548667E0,4.573838264E-2,2.097155349E0,1.342362254E0,2.490399362E0
1.028471667E0,-6.806170714E-1,3.111577098E0,1.197127358E0,3.402685050E0
1.038395667E0,-1.204849629E0,3.359703695E0,1.202332988E0,3.766281476E0
1.048318667E0,-1.191232195E0,3.451478668E0,1.318464684E0,3.882021156E0
1.058242667E0,-1.026653832E0,2.940889857E0,1.408811767E0,3.418713477E0
1.068166667E0,-5.706627392E-1,2.277325020E0,1.432163792E0,2.750083333E0
1.078089667E0,-1.615032027E-2,7.816511106E-1,5.782597341E-1,9.724318031E-1
1.088013667E0,4.105140075E-1,5.086492896E-2,-5.768903893E-1,7.098672500E-1
1.097936667E0,1.238998977E0,4.750921190E-2,-6.458682382E-1,1.398041977E0
1.107860667E0,1.944393917E0,2.828689975E-1,-6.279243028E-1,2.062758227E0
1.117783667E0,2.373920731E0,7.286624730E-1,-4.887255601E-1,2.530869674E0
1.127707667E0,2.704637494E0,1.228125202E0,-2.301784216E-1,2.979318310E0
1.137630667E0,2.813191345E0,1.720870065E0,-4.296129142E-1,3.325658819E0
1.147554667E0,2.908605333E0,2.975898891E0,-7.016799116E-1,4.219989797E0
1.157477667E0,2.620739012E0,3.941267179E0,-5.549744403E-1,4.765485975E0
1.167401667E0,2.075404584E0,3.255854806E0,4.744044864E-1,3.890109808E0
1.177325667E0,1.023646609E0,1.657750542E0,2.162143497E0,2.910473112E0
1.187248667E0,5.752750229E-2,-6.423692644E-2,3.313528817E0,3.314650663E0
1.197172667E0,-6.828282691E-1,-1.104609788E0,1.980009746E0,2.367880027E0
1.207095667E0,-7.603483153E-1,-2.034901798E0,1.882819081E0,2.874710869E0
1.217019667E0,-6.821336930E-1,-2.992858155E0,3.948401366E0,5.001237813E0
1.226942667E0,-1.065626840E0,-3.656063388E0,4.895576627E0,6.202340733E0
1.236866667E0,-2.268008798E0,-3.001744754E0,2.706356283E0,4.634511819E0
1.246789667E0,-3.113476274E0,-2.022544878E0,-1.133787394E0,3.881996412E0
1.256713667E0,-2.700578941E0,-1.228795293E0,-3.268994084E0,4.414678563E0
1.266636667E0,-1.725290560E0,-1.226578029E0,-3.930501285E0,4.464298549E0
1.276560667E0,-8.270791523E-1,-1.991438275E0,-2.646078798E0,3.413446841E0
1.286484667E0,-6.963416961E-1,-3.079171245E0,-1.814966091E0,3.641468004E0
1.296407667E0,-1.069364819E0,-4.025845399E0,-1.424379686E0,4.402252808E0
1.306331667E0,-9.235571873E-1,-4.251225157E0,-7.866113037E-2,4.351098802E0
1.316254667E0,-1.793428749E-1,-2.353080377E0,7.585756588E-1,2.478827981E0
1.326178667E0,3.736835656E-1,3.364698386E-1,-2.320081615E-1,5.537861920E-1
1.336101667E0,5.795350850E-2,1.874872862E0,-3.303371034E0,3.798784943E0
1.346025667E0,5.651304692E-2,3.288112140E0,-5.559857748E0,6.459635698E0
1.355948667E0,9.730755025E-1,6.103297386E0,-4.404578912E0,7.589297089E0
1.365872667E0,2.099457106E0,9.479599571E0,-6.145259929E-1,9.728729124E0
1.375796667E0,3.437995281E0,1.243278028E1,2.965533532E0,1.323586892E1
1.385719667E0,4.283924249E0,1.345043787E1,1.805645629E0,1.423118555E1
1.395643667E0,4.604952468E0,1.363291895E1,-2.885505615E0,1.467611014E1
1.405566667E0,5.092919571E0,1.369615308E1,-4.321263106E0,1.523797079E1
1.415490667E0,5.367962655E0,1.352247908E1,-2.144286831E0,1.470613578E1
1.425413667E0,4.327184289E0,1.227613805E1,8.767221594E-1,1.304594692E1
1.435337667E0,2.460913266E0,1.060385893E1,1.423873464E0,1.097840307E1
1.445260667E0,1.299073563E0,9.020275054E0,1.038284821E0,9.172294671E0
1.455184667E0,4.394781902E-2,6.642314774E0,1.221404924E0,6.753821656E0
1.465108667E0,-7.497671208E-1,4.958371046E0,1.954200282E0,5.382052852E0
1.475031667E0,-7.512175226E-1,3.191926028E0,2.780598965E0,4.299354618E0
1.484955667E0,-8.645598046E-1,1.789149172E0,2.864112407E0,3.485922876E0
1.494878667E0,-7.185774878E-1,5.677038288E-1,2.190752900E0,2.374455624E0
1.504802667E0,-5.888226561E-1,-8.125431204E-1,1.222173321E0,1.581343122E0
1.514725667E0,-6.745732431E-1,-2.582011149E0,4.825496578E-1,2.711952213E0
1.524649667E0,-8.042877290E-1,-4.614147214E0,-3.093878746E-2,4.683822208E0
1.534572667E0,-1.033251245E0,-6.469766364E0,-1.147469294E-1,6.552759098E0
1.544496667E0,-1.219298976E0,-8.237345157E0,1.665708200E-1,8.328762878E0
1.554420667E0,-1.240446893E0,-9.311357051E0,7.340454197E-1,9.422255637E0
1.564343667E0,-1.177981966E0,-1.084931569E1,1.134811242E0,1.097192275E1
1.574267667E0,-9.504567913E-1,-1.219252286E1,9.092490506E-1,1.226326693E1
1.584190667E0,-6.256124599E-1,-1.247125729E1,1.721163376E-1,1.248812530E1
1.594114667E0,-2.385845250E-1,-1.199205692E1,-2.904312015E-1,1.199794574E1
1.604037667E0,2.373536130E-1,-1.193071027E1,9.976871093E-2,1.193348810E1
1.613961667E0,5.477322252E-1,-1.169033358E1,9.928502011E-1,1.174519737E1
1.623884667E0,8.005871724E-1,-1.160305102E1,1.979619298E0,1.179790767E1
1.633808667E0,8.864919797E-1,-1.132841198E1,2.169148607E0,1.156823200E1
1.643732667E0,7.245233752E-1,-1.085583884E1,1.368340849E0,1.096569778E1
1.653655667E0,4.332076362E-1,-1.010160415E1,-3.882551193E-4,1.011088896E1
1.663579667E0,1.372075465E-1,-9.243724061E0,-1.579990759E0,9.378786234E0
1.673502667E0,-1.780737367E-1,-8.908468689E0,-2.644676929E0,9.294452146E0
1.683426667E0,-5.115119402E-1,-8.515639878E0,-2.943021752E0,9.024363913E0
1.693349667E0,-8.047417653E-1,-8.205014732E0,-2.782429728E0,8.701252281E0
1.703273667E0,-1.060334233E0,-8.066311761E0,-2.430283504E0,8.490934696E0
1.713196667E0,-1.320755477E0,-7.601781467E0,-1.906193326E0,7.947644274E0
1.723120667E0,-1.463779103E0,-6.279673383E0,-1.108699331E0,6.542641765E0
1.733044667E0,-1.044244157E0,-3.905257101E0,4.394950010E-1,4.066280209E0
1.742967667E0,1.041210768E-1,-1.388333648E0,3.194232754E0,3.484456113E0
1.752891667E0,1.835508529E0,6.682478714E-1,4.421524143E0,4.833789665E0
1.762814667E0,2.369898870E0,2.260776231E0,1.859537223E0,3.766352148E0
1.772738667E0,1.537356664E0,4.039545425E0,-2.920181358E0,5.216210494E0
1.782661667E0,1.001884149E0,6.227944236E0,-5.760305563E0,8.542375631E0
1.792585667E0,1.751048568E0,1.092463133E1,-2.724380910E0,1.139455976E1
1.802509667E0,3.928419384E0,2.089487545E1,7.681159759E0,2.260593979E1
1.812432667E0,5.271235675E0,3.079328067E1,1.441911919E1,3.440818301E1
1.822356667E0,4.234607370E0,3.141910582E1,5.916208119E0,3.225048261E1
1.832279667E0,2.381748106E0,2.600884558E1,-5.117789533E0,2.661436721E1
1.842203667E0,3.591383243E-1,2.128792060E1,-7.081491541E0,2.243773755E1
1.852126667E0,-1.079248952E0,1.661543630E1,-2.157177310E0,1.678960738E1
1.862050667E0,-1.379531835E0,1.305771431E1,2.679883891E0,1.340107417E1
1.871973667E0,-1.448008723E0,1.229890243E1,4.238236737E0,1.308901756E1
1.881897667E0,-1.863404864E0,1.299785403E1,3.234798105E0,1.352332821E1
1.891821917E0,-2.154470196E0,1.316977503E1,2.639003960E0,1.360327380E1
1.901744917E0,-2.091203176E0,1.123862096E1,3.599696814E0,1.198488836E1
1.911668917E0,-1.321123413E0,7.225964545E0,4.051441585E0,8.388927798E0
1.921591917E0,-1.501407105E-1,3.140117358E0,3.193489573E0,4.481211321E0
1.931515917E0,9.672005126E-1,-4.122479993E-1,2.343756992E0,2.568778324E0
1.941438917E0,1.517676544E0,-3.325899187E0,1.484037512E0,3.945543667E0
1.951362917E0,1.257757283E0,-5.508970599E0,1.048300590E0,5.747142296E0
1.961286917E0,9.585431251E-1,-7.848411176E0,2.934951425E-1,7.912174310E0
1.971209917E0,7.379555990E-1,-9.476746715E0,-2.536166932E-1,9.508818443E0
1.981133917E0,6.143446561E-1,-1.070284878E1,-4.431137697E-1,1.072961981E1
1.991056917E0,5.124501991E-1,-1.191273827E1,-2.323777787E-1,1.192601936E1
2.000980917E0,4.324504948E-1,-1.262386494E1,-8.224620447E-3,1.263127259E1
2.010903917E0,3.942999709E-1,-1.301415606E1,9.640596807E-2,1.302048481E1
2.020827917E0,3.378918449E-1,-1.286023981E1,8.343560122E-2,1.286494851E1
2.030751917E0,3.545795426E-1,-1.260452586E1,-1.544167793E-1,1.261045770E1
2.040674917E0,4.844584448E-1,-1.222727988E1,-3.290369312E-1,1.224129644E1
2.050598917E0,6.324649581E-1,-1.169784608E1,-4.417969036E-1,1.172325890E1
2.060521917E0,8.608028224E-1,-1.093450377E1,-6.163854805E-1,1.098563996E1
2.070445917E0,9.260454699E-1,-9.936433175E0,-9.010675534E-1,1.002008918E1
2.080368917E0,8.074370393E-1,-9.163838232E0,-1.205147399E0,9.277945137E0
2.090292917E0,6.353280473E-1,-8.782381085E0,-1.490576307E0,8.930603394E0
2.100216917E0,4.727253854E-1,-8.611006211E0,-1.708934729E0,8.791663959E0
2.110139917E0,2.748369697E-1,-8.676668104E0,-1.723236433E0,8.850403864E0
2.120063917E0,7.229607068E-2,-8.766632195E0,-1.653382087E0,8.921476284E0
2.129986917E0,-1.207137206E-1,-8.764690919E0,-1.484819723E0,8.890391910E0
2.139910917E0,-3.234980831E-1,-8.754835437E0,-1.328531835E0,8.860970115E0
2.149833917E0,-4.876995930E-1,-8.739265471E0,-1.206577043E0,8.835634670E0
2.159757917E0,-6.787675971E-1,-8.748124003E0,-1.135337491E0,8.847564085E0
2.169681917E0,-8.703045478E-1,-8.702539694E0,-1.046012501E0,8.808278452E0
2.179604917E0,-1.062985653E0,-8.471766465E0,-8.137118326E-1,8.576881279E0
2.189528917E0,-1.273420658E0,-7.915445995E0,-2.845839858E-1,8.022273588E0
2.199451917E0,-1.553968896E0,-6.644563029E0,7.419520247E-1,6.864075319E0
2.209375917E0,-1.640558412E0,-5.051223076E0,7.668627714E-1,5.366038108E0
2.219298917E0,-1.505900690E0,-4.236060988E0,-9.267252088E-1,4.590290752E0
2.229222917E0,-1.611554907E0,-2.834076430E0,-2.132432771E0,3.895685812E0
2.239146917E0,-1.564994113E0,1.829258732E0,2.088106198E0,3.186782324E0
2.249069917E0,-8.879741026E-1,1.147975429E1,1.630479011E1,1.996044681E1
2.258993917E0,-4.057304004E-1,1.625922276E1,1.320632364E1,2.095075001E1
2.268916917E0,7.791268677E-2,1.796942575E1,-2.642345059E-1,1.797153727E1
2.278840917E0,1.414404044E0,2.344985609E1,-5.957545595E0,2.423610197E1
2.288763917E0,4.389584020E0,2.952335197E1,-3.317917153E0,3.003173877E1
2.298687917E0,7.968410075E0,3.037902883E1,5.580559230E-1,3.141165991E1
2.308611917E0,1.093197777E1,2.454837951E1,2.094346201E0,2.695398598E1
2.318534917E0,1.204846618E1,1.688382233E1,2.352331349E0,2.087492411E1
2.328458917E0,8.672614814E0,1.183999072E1,-5.338819255E-1,1.468620638E1
2.338381917E0,4.040326906E0,1.007896490E1,-1.287513617E0,1.093469096E1
2.348305917E0,6.301145236E-1,9.753888364E0,-5.421749584E-1,9.789245948E0
2.358229917E0,-1.194171590E0,9.381610762E0,7.221111795E-1,9.484835836E0
2.368152917E0,-1.497994816E0,8.187738549E0,1.360641235E0,8.434120914E0
2.378076917E0,-4.765337500E-1,5.967037965E0,1.784152726E0,6.246265079E0
2.387999917E0,4.842659618E-1,3.575395201E0,2.152205715E0,4.201184810E0
2.397923917E0,8.487672061E-1,1.219170776E0,2.337412763E0,2.769527320E0
2.407846917E0,3.928875759E-1,-7.306002402E-1,2.166420296E0,2.319809100E0
2.417770917E0,-3.528723018E-1,-2.380618424E0,1.624271139E0,2.903466837E0
2.427694917E0,-8.537557581E-1,-3.644673597E0,1.015709306E0,3.878686622E0
2.437617917E0,-9.655687009E-1,-4.824071027E0,6.551559556E-1,4.963185823E0
2.447541917E0,-8.421256462E-1,-6.102884572E0,5.318890482E-1,6.183630136E0
2.457464917E0,-5.716849787E-1,-7.507764671E0,4.270209897E-1,7.541598040E0
2.467388917E0,-2.746943342E-1,-9.037400379E0,1.406138420E-1,9.042667463E0
2.477311917E0,6.117265653E-2,-1.014216512E1,-2.094168591E-1,1.014451136E1
2.487235917E0,4.213512370E-1,-1.088712027E1,-1.085992838E0,1.094926048E1
2.497159917E0,6.710232523E-1,-1.129591432E1,-1.717421962E0,1.144541353E1
2.507082917E0,8.222202623E-1,-1.168673169E1,-1.683346728E0,1.183593680E1
2.517006917E0,9.882554591E-1,-1.188183340E1,-1.331022749E0,1.199692608E1
2.526929917E0,1.220479675E0,-1.204597059E1,-7.629879677E-1,1.213165812E1
2.536853917E0,1.351969522E0,-1.209898144E1,-3.714899826E-1,1.217994985E1
2.546777917E0,1.341278180E0,-1.195766594E1,-3.195865881E-1,1.203689899E1
2.556700917E0,1.222051699E0,-1.181126920E1,-3.777038187E-1,1.188032620E1
2.566624917E0,1.000447854E0,-1.156601008E1,-3.723910020E-1,1.161516939E1
2.576547917E0,5.862522932E-1,-1.112002891E1,-4.922782918E-1,1.114634795E1
2.586471917E0,3.490948543E-2,-1.061718005E1,-6.174186835E-1,1.063517451E1
2.596394917E0,-4.870395155E-1,-1.014529221E1,-6.506091607E-1,1.017779219E1
2.606318917E0,-8.857307453E-1,-9.670643894E0,-5.318621876E-1,9.725674767E0
2.616242917E0,-1.232881473E0,-9.052357557E0,-4.638117436E-1,9.147693447E0
2.626165917E0,-1.621372089E0,-8.288049288E0,-2.737040716E-1,8.449587112E0
2.636089917E0,-1.910422325E0,-7.296747429E0,-4.675828323E-2,7.542839177E0
2.646012917E0,-2.065602019E0,-6.414504914E0,-4.957409763E-1,6.757095834E0
2.655936917E0,-2.143457111E0,-6.161043903E0,-1.840182500E0,6.777841986E0
2.665860917E0,-2.235198171E0,-5.411257778E0,-1.610866982E0,6.072290675E0
2.675783917E0,-2.938164762E0,-2.269164646E0,3.157304079E0,4.873447384E0
2.685707917E0,-3.395258859E0,2.626306146E0,9.617937677E0,1.053233079E1
2.695630917E0,-2.116544132E0,3.313677921E0,5.313351415E0,6.609986663E0
2.705554917E0,-1.116323515E0,1.890962645E0,-4.365998983E0,4.887112137E0
2.715478917E0,4.624825984E-2,4.972903715E0,-6.925973146E0,8.526488977E0
2.725401917E0,2.685329111E0,1.293406909E1,-3.589682872E0,1.368893563E1
2.735325917E0,8.392006935E0,2.810888477E1,1.490758039E1,3.290548794E1
2.745248917E0,1.156760871E1,3.434873862E1,5.691635862E0,3.668841963E1
2.755172917E0,1.371568044E1,3.491099986E1,-9.737509144E0,3.875199202E1
2.765096917E0,1.583140888E1,3.457373714E1,-4.216793243E0,3.825909241E1
2.775019917E0,1.536001454E1,2.589955644E1,3.907153353E0,3.036417162E1
2.784943917E0,1.108125485E1,1.546747584E1,3.087709934E0,1.927617625E1
2.794866917E0,6.804668564E0,9.009376429E0,3.350445213E0,1.177700561E1
2.804790917E0,4.074973997E0,6.173058761E0,4.851713154E0,8.845970161E0
2.814713917E0,2.168489334E0,5.939312807E0,3.426112862E0,7.191385955E0
2.824637917E0,1.259510424E0,6.244983607E0,2.291825531E0,6.770424730E0
2.834561917E0,1.270499974E0,5.891454517E0,2.370234354E0,6.476219375E0
2.844484917E0,1.759075772E0,4.735818416E0,2.687354586E0,5.722254653E0
2.854408917E0,1.766495889E0,3.030142926E0,2.571360446E0,4.349042242E0
2.864331917E0,1.561266221E0,1.199255744E0,1.796727163E0,2.665332071E0
2.874255917E0,1.445268280E0,-6.322389632E-1,6.706487381E-1,1.714145920E0
2.884179917E0,1.229733917E0,-3.214745956E0,-2.796664957E-1,3.453266630E0
2.894103417E0,6.177691510E-1,-6.036428627E0,-7.221206081E-1,6.110774703E0
2.904027417E0,1.238427119E-1,-8.155671834E0,-8.643769330E-1,8.202284289E0
2.913950417E0,1.810587403E-1,-9.438616437E0,-1.180033607E0,9.513818467E0
2.923874417E0,5.092694599E-1,-1.115662897E1,-2.112367465E0,1.136625803E1
2.933798417E0,7.083094847E-1,-1.231298954E1,-2.685402786E0,1.262231365E1
2.943721417E0,9.302367541E-1,-1.300414797E1,-2.807663387E0,1.333627304E1
2.953645417E0,7.102662554E-1,-1.367209296E1,-2.646999443E0,1.394407437E1
2.963568417E0,4.595893961E-1,-1.458588295E1,-2.394966906E0,1.478834238E1
2.973492417E0,1.092639953E-1,-1.515181274E1,-2.311993747E0,1.532757916E1
2.983416417E0,-2.941444758E-1,-1.514528724E1,-2.175207492E0,1.530352163E1
2.993339417E0,-7.947553056E-1,-1.508765592E1,-1.438248990E0,1.517687574E1
3.003263417E0,-1.190267989E0,-1.444066267E1,-8.933329296E-1,1.451714573E1
3.013186417E0,-1.405350800E0,-1.309071366E1,-5.696995566E-1,1.317825302E1
3.023110417E0,-1.439959008E0,-1.119105620E1,-2.690379936E-1,1.128652304E1
3.033034417E0,-1.246615267E0,-9.558910035E0,-1.155773071E-1,9.640548158E0
3.042957417E0,-9.642207715E-1,-8.593247048E0,-1.080723327E-1,8.647849221E0
3.052881417E0,-6.691977516E-1,-8.138657606E0,-1.512673958E-1,8.167524415E0
3.062804417E0,-4.445094270E-1,-7.845537854E0,-1.536575183E-3,7.858120336E0
3.072728417E0,-2.023057313E-1,-7.496422827E0,3.173594568E-1,7.505864363E0
3.082652417E0,-4.334979504E-2,-6.995295396E0,8.854502982E-1,7.051245217E0
3.092575417E0,-3.070434335E-1,-6.067017751E0,2.016404132E0,6.400692594E0
3.102499417E0,-8.473521799E-1,-4.836675285E0,3.914531955E0,6.279728812E0
3.112422417E0,-8.322853670E-1,-3.814469723E0,4.664806906E0,6.083033920E0
3.122346417E0,-2.336943524E-1,-4.369121397E0,1.606609478E0,4.661011569E0
3.132270417E0,-6.905563147E-1,-5.188923250E0,-1.188611619E0,5.367922327E0
3.142193417E0,-1.042745369E0,-4.940420678E0,-1.117517517E0,5.171452386E0
3.152117417E0,-1.003804960E0,-2.982906194E0,1.220348113E0,3.375589323E0
3.162040417E0,-7.168624994E-1,1.413311200E0,5.762619306E0,5.976547637E0
3.171964417E0,4.918027304E-1,5.401093563E0,4.934310923E0,7.332196525E0
3.181888417E0,2.869459101E0,1.100244842E1,-9.907975361E-1,1.141355976E1
3.191811417E0,6.172752952E0,2.158876687E1,-2.788610820E0,2.262640237E1
3.201735417E0,9.172396216E0,3.553798978E1,4.787157555E0,3.701349007E1
3.211658417E0,1.000022396E1,4.247775767E1,6.903943176E0,4.418177008E1
3.221582417E0,7.324246885E0,3.872387563E1,-6.263383918E-1,3.941542130E1
3.231506417E0,4.475595978E0,3.213767717E1,-3.393326354E0,3.262477459E1
3.241429417E0,3.951893908E0,2.247375465E1,-2.633615166E-1,2.282008924E1
3.251353417E0,3.844281459E0,1.313152956E1,2.436422496E0,1.389790355E1
3.261276417E0,3.283754210E0,7.820805886E0,2.127084907E0,8.744857725E0
3.271200417E0,2.929362071E0,5.078417891E0,1.546793777E0,6.063337481E0
3.281124417E0,3.116270366E0,2.003312216E0,1.703070556E0,4.077358231E0
3.291047417E0,2.703839349E0,-6.775642401E-1,2.115121504E0,3.499082666E0
3.300971417E0,1.383707039E0,-2.208995043E0,1.885916498E0,3.217294719E0
3.310895417E0,-2.278776153E-1,-3.435695279E0,1.955285525E0,3.959680762E0
3.320818417E0,-1.476286882E0,-4.586869369E0,2.304979427E0,5.341509498E0
3.330742417E0,-1.952640684E0,-5.082517374E0,1.768510839E0,5.724720001E0
3.340665417E0,-1.685850067E0,-5.558020552E0,7.275708709E-1,5.853464127E0
3.350589417E0,-9.673420152E-1,-5.778054786E0,-2.532458335E-1,5.863940751E0
3.360513417E0,-1.788139942E-1,-6.405849280E0,-9.176667023E-1,6.473715442E0
3.370436417E0,5.095899604E-1,-7.274143848E0,-1.382078882E0,7.421791743E0
3.380360417E0,1.128854829E0,-8.382694659E0,-1.884548249E0,8.665760502E0
3.390283417E0,1.746579980E0,-9.573641510E0,-2.155277842E0,9.967465875E0
3.400207417E0,2.170217186E0,-1.061076098E1,-2.330604849E0,1.107834871E1
3.410131417E0,2.369607240E0,-1.186099041E1,-1.937679559E0,1.224960139E1
3.420054417E0,2.590871142E0,-1.326707504E1,-1.396939580E0,1.358967746E1
3.429978417E0,2.755465878E0,-1.388352593E1,-1.130819348E0,1.419942383E1
3.439901417E0,2.990525409E0,-1.353281228E1,-1.130917581E0,1.390536677E1
3.449825417E0,3.023190002E0,-1.296986808E1,-1.077464089E0,1.336106600E1
3.459749417E0,2.794371789E0,-1.228626893E1,-8.581180733E-1,1.262922344E1
3.469672417E0,2.324203610E0,-1.142740885E1,-7.816061602E-1,1.168753625E1
3.479596417E0,1.577166262E0,-1.049278522E1,-8.806351161E-1,1.064713639E1
3.489519417E0,7.356914109E-1,-9.482430793E0,-1.142783409E0,9.579336591E0
3.499443417E0,5.998980135E-2,-8.712994516E0,-1.348690111E0,8.816963039E0
3.509367417E0,-3.807660055E-1,-8.260923470E0,-1.384636015E0,8.384811042E0
3.519290417E0,-7.940752745E-1,-7.811070272E0,-1.381455715E0,7.971937922E0
3.529214417E0,-1.027556934E0,-7.391859409E0,-9.797939533E-1,7.526981796E0
3.539138417E0,-1.162998037E0,-6.784189861E0,-7.801486686E-2,6.883595196E0
3.549061417E0,-1.563656563E0,-5.767646742E0,1.170251216E0,6.089356180E0
3.558985417E0,-2.112316010E0,-4.753940692E0,1.795590611E0,5.503269634E0
3.568908417E0,-2.393830500E0,-3.698083819E0,2.393474112E0,5.013478505E0
3.578832417E0,-2.232396770E0,-2.454957585E0,2.093726834E0,3.923532100E0
3.588756417E0,-1.577788990E0,-1.267416152E0,1.224692156E0,2.365508968E0
3.598679417E0,-7.254392684E-1,9.251084536E-1,1.536346411E0,1.934540792E0
3.608603417E0,1.013793393E0,3.208433302E0,-3.817759658E-1,3.386380691E0
3.618526417E0,2.685236140E0,6.251672822E0,-2.325187404E0,7.190299205E0
3.628450417E0,3.984679247E0,1.325544610E1,1.601852768E0,1.393378815E1
3.638374417E0,4.509699863E0,2.389125772E1,1.152979008E1,2.690846795E1
3.648297417E0,3.203230742E0,3.019671031E1,9.627293222E0,3.185571809E1
3.658221417E0,1.571480722E0,2.917204891E1,-5.445991409E-1,2.921942124E1
3.668145417E0,1.226760827E-1,2.646087277E1,-2.812312216E0,2.661018484E1
3.678068417E0,-1.128431345E0,2.436037749E1,-4.378427240E-1,2.439042958E1
3.687992417E0,-1.087064340E0,2.002775909E1,1.994111622E0,2.015612374E1
3.697915417E0,-5.713694483E-2,1.531794149E1,4.460355502E-1,1.532454057E1
3.707839417E0,2.498813456E-1,1.309607205E1,-1.520327233E0,1.318639218E1
3.717763417E0,1.365725572E-1,1.224380060E1,-1.509745965E0,1.233728650E1
3.727686417E0,-9.858317882E-2,9.912198805E0,-1.161485070E-1,9.913369471E0
3.737610417E0,-2.976645727E-1,5.933273218E0,2.013650239E0,6.272728479E0
3.747534417E0,-2.644102147E-1,2.012767164E0,3.950233299E0,4.441338484E0
3.757457417E0,-8.536291659E-2,-1.143171591E0,4.650797562E0,4.789994371E0
3.767381417E0,5.075953290E-2,-3.470652273E0,4.402309608E0,5.606097895E0
3.777304417E0,-1.769693439E-1,-4.562106410E0,2.753222886E0,5.331450957E0
3.787228417E0,-2.579810549E-1,-5.492103136E0,8.732137569E-1,5.567068650E0
3.797152417E0,-1.437842023E-1,-6.382411301E0,-6.398725033E-2,6.384351360E0
3.807075417E0,1.442116338E-1,-7.246881205E0,-4.949363995E-1,7.265194163E0
3.816999417E0,5.240248355E-1,-8.150747309E0,-6.976277912E-1,8.197314698E0
3.826922417E0,9.454786912E-1,-8.814351906E0,-8.372142774E-1,8.904361697E0
3.836846417E0,1.367027856E0,-9.577198956E0,-9.775392669E-1,9.723532692E0
3.846770417E0,1.696769743E0,-1.019709971E1,-9.339733442E-1,1.037941117E1
3.856693417E0,2.002318920E0,-1.068273085E1,-7.591597226E-1,1.089524405E1
3.866617417E0,2.342440199E0,-1.136531142E1,-4.132315010E-1,1.161154985E1
3.876541417E0,2.613176808E0,-1.189587958E1,-1.513521805E-1,1.218045777E1
3.886464417E0,2.933382617E0,-1.228249865E1,2.793211263E-2,1.262795656E1
3.896388083E0,3.342885348E0,-1.197891940E1,6.269318841E-2,1.243677301E1
3.906311083E0,3.691344903E0,-1.069185368E1,-3.928912304E-2,1.131120267E1
3.916235083E0,3.683970979E0,-9.207474833E0,-1.671051642E-1,9.918526055E0
3.926159083E0,3.283649253E0,-8.184276413E0,-4.385019976E-1,8.829327088E0
3.936082083E0,2.651188680E0,-7.750778462E0,-7.539961926E-1,8.226291901E0
3.946006083E0,1.957452211E0,-7.780140840E0,-1.071059707E0,8.093786478E0
3.955930083E0,1.330413177E0,-8.136569565E0,-1.348868451E0,8.354233035E0
3.965853083E0,9.480058578E-1,-8.596824374E0,-1.476942354E0,8.774136034E0
3.975777083E0,7.767152566E-1,-8.828550700E0,-1.538377880E0,8.995176516E0
3.985700083E0,5.543218911E-1,-9.081039319E0,-1.459991276E0,9.214343297E0
3.995624083E0,2.530601844E-1,-9.428990750E0,-1.428643768E0,9.539964834E0
4.005548083E0,3.258799464E-2,-9.362496214E0,-1.604900483E0,9.499110637E0
4.015471083E0,-2.244857917E-1,-8.773094537E0,-1.644910495E0,8.928791193E0
4.025395083E0,-8.416902479E-1,-7.783514684E0,-5.093955405E-1,7.845446267E0
4.035319083E0,-1.763703259E0,-5.447331591E0,1.937583372E0,6.044691884E0
4.045242083E0,-1.182066173E0,-1.491304286E0,2.918526303E0,3.484116056E0
4.055166083E0,-2.777310491E-2,2.111777481E0,1.477316576E0,2.577370703E0
4.065089083E0,3.742338616E-1,4.940710700E0,-1.270548213E0,5.115170180E0
4.075013083E0,2.989118569E-1,9.792690488E0,1.861209234E0,9.972473870E0
4.084937083E0,1.057947034E0,1.674594616E1,5.986454229E0,1.781526309E1
4.094860083E0,1.568054253E0,2.508632802E1,8.268964561E0,2.646050685E1
4.104784083E0,9.554625926E-1,3.190788627E1,4.000491872E0,3.217188291E1
4.114708083E0,-1.855099332E-1,3.419748752E1,-2.646368528E0,3.430023080E1
4.124631083E0,-2.881615170E0,3.239924885E1,5.409376144E-1,3.253164069E1
4.134555083E0,-5.622128255E0,2.450188011E1,4.653138202E0,2.556564394E1
4.144478083E0,-5.143515528E0,1.746215757E1,2.810241424E0,1.841955906E1
4.154402083E0,-3.660176612E0,1.449252397E1,-9.302861631E-2,1.494786935E1
4.164326083E0,-3.122534781E0,1.167369825E1,-1.027216919E0,1.212768027E1
4.174249083E0,-3.807841319E0,8.531696917E0,1.961150283E-1,9.344943493E0
4.184173083E0,-4.977537634E0,5.484202963E0,2.279028314E0,7.748956904E0
4.194097083E0,-5.485940756E0,2.829790421E0,3.228241915E0,6.965974853E0
4.204020083E0,-4.187446360E0,1.012947666E0,3.729053596E0,5.697947939E0
4.213944083E0,-2.130399401E0,-1.148279133E0,4.406907858E0,5.027721497E0
4.223868083E0,-6.836326267E-1,-2.749697015E0,4.222643382E0,5.085165127E0
4.233791083E0,1.043377161E-1,-3.750883006E0,3.140768738E0,4.893305422E0
4.243715083E0,6.002503082E-1,-4.501729231E0,2.242108995E0,5.064871099E0
4.253638083E0,9.107789746E-1,-5.083786805E0,1.333100265E0,5.334000650E0
4.263562083E0,1.210664978E0,-5.543865613E0,5.903751650E-1,5.705146664E0
4.273486083E0,1.651016303E0,-6.277732108E0,-9.515174031E-2,6.491904890E0
4.283409083E0,2.063828851E0,-7.204823352E0,-7.856039015E-1,7.535651435E0
4.293333083E0,2.473009109E0,-8.290660070E0,-1.651948934E0,8.807936973E0
4.303257083E0,3.011774483E0,-9.344018428E0,-2.130386245E0,1.004589525E1
4.313180083E0,3.567229857E0,-9.936795702E0,-1.805293334E0,1.071093468E1
4.323104083E0,4.147236812E0,-1.070553148E1,-1.230780423E0,1.154654918E1
4.333028083E0,4.489998839E0,-1.099876935E1,-1.336671159E0,1.195490303E1
4.342951083E0,4.472789022E0,-1.096144891E1,-2.060589201E0,1.201687279E1
4.352875083E0,4.254563625E0,-1.070116010E1,-2.589688543E0,1.180350058E1
4.362798083E0,3.991940027E0,-1.034902441E1,-2.451827570E0,1.135998899E1
4.372722083E0,3.651500221E0,-9.893744992E0,-1.989418647E0,1.073207484E1
4.382646083E0,3.314677503E0,-9.531753227E0,-1.539795245E0,1.020844630E1
4.392569083E0,3.027722179E0,-9.264824324E0,-1.220556639E0,9.823127295E0
4.402493083E0,2.767126980E0,-9.180310423E0,-1.000245248E0,9.640310251E0
4.412417083E0,2.516572620E0,-9.249363116E0,-9.362205023E-1,9.631218232E0
4.422340083E0,2.230732067E0,-9.228866286E0,-1.112487303E0,9.559590289E0
4.432264083E0,1.981123494E0,-9.221453771E0,-1.295920890E0,9.520476401E0
4.442187083E0,1.809851531E0,-9.187523548E0,-1.458591014E0,9.477005817E0
4.452111083E0,1.664815148E0,-8.951026479E0,-1.769413796E0,9.274875184E0
4.462035083E0,1.518225013E0,-8.500402619E0,-2.121358875E0,8.891682369E0
4.471958083E0,1.192856917E0,-8.329238829E0,-1.882710616E0,8.622280809E0
4.481882083E0,4.900092432E-1,-8.748270768E0,-5.515438789E-1,8.779325210E0
4.491806083E0,-4.171931358E-1,-8.242367331E0,1.376989173E0,8.367004751E0
4.501729083E0,-1.663762064E0,-5.537031387E0,2.927608491E0,6.480564193E0
4.511653083E0,-2.968706231E0,-1.760932263E0,4.962179922E0,6.044611542E0
4.521577083E0,-6.576777135E-1,1.262831935E0,3.704309057E0,3.968524922E0
4.531500083E0,1.449346420E0,3.830680543E0,5.767068452E0,7.073457217E0
4.541424083E0,1.328819080E0,7.116547353E0,7.073044653E0,1.012121371E1
4.551347083E0,1.501324367E0,7.916903121E0,8.776927972E-1,8.105656947E0
4.561271083E0,1.936506608E0,1.085547748E1,-4.994188750E-1,1.103815512E1
4.571195083E0,1.470474603E0,1.791517645E1,3.324958662E0,1.828034991E1
4.581118083E0,-5.260115732E-1,2.738571284E1,9.546665965E0,2.900677139E1
4.591042083E0,-3.927639658E0,3.344587940E1,1.010963004E1,3.516045822E1
4.600966083E0,-6.003995876E0,3.267366336E1,3.258243393E0,3.338011974E1
4.610889083E0,-6.272999371E0,2.646728833E1,-8.032992572E-1,2.721237150E1
4.620813083E0,-5.877264494E0,1.912156112E1,2.241442412E-2,2.000442051E1
4.630737083E0,-4.909710517E0,1.417436644E1,2.155997050E-1,1.500214667E1
4.640660083E0,-4.474751347E0,1.127933279E1,-7.881456131E-1,1.216009545E1
4.650584083E0,-4.235020476E0,8.638498065E0,-7.961412419E-1,9.653646364E0
4.660508083E0,-4.013110163E0,5.583142530E0,4.313286334E-1,6.889308970E0
4.670431083E0,-3.715587166E0,2.604052228E0,1.477456763E0,4.771745434E0
4.680355083E0,-3.057728628E0,-1.182435644E-1,1.432094503E0,3.378547109E0
4.690278083E0,-2.126059598E0,-2.035727425E0,1.026142931E0,3.117255986E0
4.700202083E0,-1.294326208E0,-2.691171649E0,1.353465094E0,3.278651085E0
4.710126083E0,-7.915510315E-1,-2.750112167E0,8.613178159E-1,2.988567942E0
4.720049083E0,-1.169978151E-1,-3.174251064E0,-6.300610216E-1,3.238292019E0
4.729973083E0,7.311267820E-1,-4.266673501E0,-1.091367014E0,4.464317539E0
4.739897083E0,1.592840016E0,-5.560337804E0,-6.714743650E-1,5.822832097E0
4.749820083E0,2.259534867E0,-6.639633826E0,-4.486641660E-2,7.013718568E0
4.759744083E0,2.951972669E0,-8.009799591E0,1.852234197E-1,8.538462381E0
4.769668083E0,3.468881151E0,-9.154780895E0,-2.592164254E-1,9.793382604E0
4.779591083E0,3.937610330E0,-1.030481829E1,-8.278786129E-1,1.106252403E1
4.789515083E0,4.299010357E0,-1.107297051E1,-1.242177669E0,1.194299675E1
4.799438083E0,4.688552156E0,-1.164268345E1,-1.282073368E0,1.261658873E1
4.809362083E0,5.054758303E0,-1.175316425E1,-1.111189075E0,1.284220357E1
4.819286083E0,5.328507398E0,-1.151016800E1,-7.026932341E-1,1.270317819E1
4.829209083E0,5.144693157E0,-1.053780878E1,-1.779576695E-1,1.172795594E1
4.839133083E0,4.175217785E0,-9.003002379E0,3.076359026E-1,9.928803313E0
4.849057083E0,2.837904602E0,-7.933111019E0,4.380634564E-1,8.436815309E0
4.858980083E0,1.759558606E0,-7.831025650E0,1.578729223E-1,8.027822437E0
4.868904083E0,1.105650446E0,-8.293123502E0,-3.536091971E-1,8.373971566E0
4.878828083E0,8.533606325E-1,-8.773841811E0,-1.027523021E0,8.874926933E0
4.888751083E0,8.850480098E-1,-9.133506385E0,-1.618583114E0,9.317942915E0
4.898676083E0,1.012895187E0,-9.180066594E0,-1.957601023E0,9.440962932E0
4.908600083E0,1.026624011E0,-9.092864143E0,-2.132614181E0,9.395859643E0
4.918523083E0,9.001662782E-1,-8.949523745E0,-2.277631999E0,9.278571124E0
4.928447083E0,6.297677837E-1,-8.671753519E0,-2.549169677E0,9.060584010E0
4.938370083E0,2.415211429E-1,-8.177385469E0,-2.964772224E0,8.701599848E0
4.948294083E0,-2.767253280E-1,-7.435086704E0,-3.412391785E0,8.185444943E0
4.958218083E0,-7.801960310E-1,-6.334105114E0,-3.656705997E0,7.355344464E0
4.968141083E0,-1.216618320E0,-5.427193780E0,-3.206475654E0,6.419974968E0
4.978065083E0,-1.603064019E0,-3.614677380E0,-1.027518635E0,4.085523388E0
4.987989083E0,-1.039758758E0,-4.968478543E-1,-1.364338576E0,1.785882363E0
4.997912083E0,-1.532953710E0,1.892185882E0,-3.727553785E0,4.452524196E0
5.007836083E0,-1.414566012E0,5.551258832E0,-2.649813707E0,6.311813076E0
5.017760083E0,1.934160412E0,1.432740445E1,9.382436389E0,1.723501109E1
5.027683083E0,1.142256501E0,2.398430563E1,1.552375296E1,2.859263143E1
5.037607083E0,-2.198272419E0,2.592881591E1,6.747198036E0,2.688234694E1
5.047531083E0,-2.966580768E0,2.816854976E1,2.803068645E0,2.846269472E1
5.057454083E0,-2.773671768E0,3.095704481E1,3.713771313E0,3.130214011E1
5.067378083E0,-3.944885436E-1,2.851101650E1,4.581300480E0,2.887943901E1
5.077302083E0,1.483238052E0,1.810727152E1,3.685406470E0,1.853794751E1
5.087225083E0,-9.473270691E-1,9.533172930E0,2.922287817E0,1.001591637E1
5.097149083E0,-4.341374019E0,7.144091831E0,2.527128598E0,8.733381672E0
5.107072083E0,-5.465746812E0,6.760861809E0,1.933131741E0,8.906213502E0
5.116996083E0,-4.709745097E0,6.881855904E0,1.343039947E0,8.446620381E0
5.126920083E0,-3.419210224E0,7.069177305E0,9.967029315E-1,7.915660620E0
5.136843083E0,-1.886512183E0,6.709430285E0,8.002635290E-1,7.015397685E0
5.146767083E0,-2.591787109E-1,5.367987213E0,9.822117770E-1,5.463259128E0
5.156691083E0,1.004499170E0,3.343685832E0,1.501528727E0,3.800505498E0
5.166614083E0,1.671088771E0,1.051909418E0,1.585363912E0,2.532277599E0
5.176538083E0,1.935420341E0,-1.057446731E0,1.113460061E0,2.470594826E0
5.186462083E0,2.081132955E0,-3.034442384E0,5.387769952E-1,3.718768023E0
5.196385083E0,2.173314748E0,-4.903312494E0,2.371086147E-1,5.368611636E0
5.206309083E0,2.277275904E0,-6.770979246E0,1.456201550E-1,7.145162750E0
5.216233083E0,2.378849933E0,-8.257673587E0,-7.338182554E-3,8.593494861E0
5.226156083E0,2.457535037E0,-9.136117752E0,-2.264082831E-1,9.463582131E0
5.236080083E0,2.446189977E0,-9.752825341E0,-5.222195442E-1,1.006847361E1
5.246004083E0,2.409308372E0,-1.036691689E1,-8.468897382E-1,1.067684198E1
5.255927083E0,2.565483702E0,-1.099698946E1,-8.770688262E-1,1.132628507E1
5.265851083E0,2.726158463E0,-1.139397798E1,-5.574115598E-1,1.172882695E1
5.275775083E0,2.896252213E0,-1.179440934E1,-8.414728045E-3,1.214481121E1
5.285698083E0,3.140336044E0,-1.209771026E1,3.743264669E-1,1.250425625E1
5.295622083E0,3.480384378E0,-1.190720213E1,4.248376393E-1,1.241269612E1
5.305546083E0,3.833894173E0,-1.098288363E1,3.972487217E-1,1.163959982E1
5.315469083E0,4.046961741E0,-9.427233662E0,3.741154555E-1,1.026599222E1
5.325393083E0,3.932398122E0,-8.176634102E0,2.040882915E-1,9.075392678E0
5.335316083E0,3.712718815E0,-7.547583041E0,-1.921669883E-1,8.413514064E0
5.345240083E0,3.418934527E0,-7.341804319E0,-8.255456469E-1,8.140806445E0
5.355164083E0,3.084147517E0,-7.486481391E0,-1.568540157E0,8.247404910E0
5.365087083E0,2.697403611E0,-7.831451327E0,-2.184104615E0,8.566091822E0
5.375011083E0,2.333115351E0,-8.077310373E0,-2.566234776E0,8.790445440E0
5.384935083E0,2.063019012E0,-8.243316919E0,-2.788937679E0,8.943516906E0
5.394858083E0,1.815699331E0,-8.444855824E0,-2.839448851E0,9.092569699E0
5.404782083E0,1.611315756E0,-8.418506516E0,-2.575951095E0,8.950034328E0
5.414706083E0,1.233636349E0,-7.621169665E0,-1.761985493E0,7.918881144E0
5.424629083E0,5.439644256E-1,-5.992633567E0,-7.798010516E-1,6.067589640E0
5.434553083E0,-4.963584423E-2,-4.028203581E0,-7.516186416E-1,4.098026158E0
5.444477083E0,-4.177686480E-1,-1.746263353E0,-1.064490287E0,2.087368179E0
5.454400083E0,-8.183668010E-1,1.004560420E0,1.682118082E0,2.123296282E0
5.464324083E0,-3.733453041E-1,4.173850121E0,6.807714379E0,7.994084476E0
5.474248083E0,-4.129569742E-1,5.090594718E0,5.009891447E0,7.154278465E0
5.484171083E0,-8.734589745E-1,5.699322612E0,1.381195806E0,5.928989009E0
5.494095083E0,-7.832421380E-1,8.224666640E0,-7.885601807E-1,8.299423880E0
5.504019083E0,-8.638699794E-1,1.459987534E1,1.232776662E0,1.467727392E1
5.513942083E0,-1.775229290E0,2.606038294E1,1.018680627E1,2.803686894E1
5.523866083E0,-4.053458290E0,3.467268606E1,1.038751429E1,3.642150650E1
5.533790083E0,-5.669327565E0,3.581567171E1,4.044900305E0,3.648650207E1
5.543713083E0,-5.427955087E0,2.959890267E1,1.483899956E0,3.012905068E1
5.553637083E0,-3.643125254E0,1.748429162E1,2.344638898E0,1.801305489E1
5.563561083E0,-2.257015302E0,9.558228250E0,3.354143577E0,1.037805976E1
5.573484083E0,-3.053461037E0,7.500796545E0,2.279741236E0,8.413251049E0
5.583408083E0,-4.367584456E0,6.988921931E0,7.465666473E-1,8.275154711E0
5.593331083E0,-4.861511334E0,5.885438901E0,4.775725079E-1,7.648578888E0
5.603255083E0,-4.060032607E0,3.721564482E0,1.021190924E0,5.601494253E0
5.613179083E0,-2.290911026E0,1.518848764E0,1.469053291E0,3.116615547E0
5.623102083E0,-4.945621777E-1,4.997498274E-2,1.835932159E0,1.902034737E0
5.633026083E0,7.171016505E-1,-9.736999851E-1,1.625297325E0,2.025812882E0
5.642950083E0,1.463174793E0,-1.856349467E0,8.657327561E-1,2.517222085E0
5.652873083E0,1.916086376E0,-2.815381127E0,1.383018529E-1,3.408355218E0
5.662797083E0,2.310802961E0,-4.026033679E0,-4.015371428E-1,4.659397986E0
5.672721083E0,2.711608837E0,-5.308958402E0,-8.362114799E-1,6.019726857E0
5.682644083E0,2.977484071E0,-6.422820824E0,-1.145343246E0,7.171460791E0
5.692568083E0,3.161263813E0,-7.404401101E0,-1.619558283E0,8.212290399E0
5.702492083E0,3.236027482E0,-8.420435513E0,-2.000454682E0,9.239990640E0
5.712415083E0,3.309440152E0,-9.648856584E0,-2.295034482E0,1.045562101E1
5.722339083E0,3.309148083E0,-1.074102876E1,-2.398050143E0,1.149220624E1
5.732263083E0,3.281104252E0,-1.141551912E1,-2.106693327E0,1.206307915E1
5.742186083E0,3.246716192E0,-1.169438453E1,-1.634351739E0,1.224626070E1
5.752110083E0,3.193462383E0,-1.184967488E1,-9.025867331E-1,1.230559465E1
5.762034083E0,3.127576542E0,-1.186830294E1,-5.765239516E-2,1.227361697E1
5.771957083E0,2.968567652E0,-1.169315193E1,7.627067167E-1,1.208817263E1
5.781881083E0,2.791454613E0,-1.122530919E1,1.356594962E0,1.164646449E1
5.791805083E0,2.666660120E0,-9.893229268E0,1.720891115E0,1.038982809E1
5.801728083E0,2.601435307E0,-8.484735589E0,1.881920511E0,9.071925291E0
5.811652083E0,2.687356925E0,-7.775325074E0,1.765742767E0,8.414001115E0
5.821576083E0,2.759189969E0,-7.598711679E0,1.406817282E0,8.205649477E0
5.831499083E0,2.695335158E0,-7.745700740E0,9.415613490E-1,8.255134726E0
5.841423083E0,2.516848024E0,-7.867714005E0,5.807798841E-1,8.280866676E0
5.851347083E0,2.334255559E0,-7.686132815E0,3.836049018E-1,8.041923861E0
5.861270083E0,2.231882507E0,-7.210582275E0,1.702843684E-1,7.550019406E0
5.871194083E0,2.094932676E0,-6.610669643E0,-1.526346941E-1,6.936353033E0
5.881118083E0,1.861976096E0,-5.779816552E0,-5.051498041E-1,6.093308681E0
5.891041083E0,1.625021921E0,-4.254745181E0,-6.291339456E-1,4.597756227E0
5.900964667E0,1.662548182E0,-1.795516205E0,7.611145198E-2,2.448211154E0
5.910888667E0,1.588981146E0,1.273425336E0,2.044350314E0,2.885453409E0
5.920811667E0,9.184003817E-1,3.328643285E0,1.900508078E0,3.941478953E0
5.930735667E0,7.231124420E-1,4.170317234E0,-1.091862712E0,4.371109884E0
5.940659667E0,8.212467009E-1,6.543147166E0,-2.791329775E0,7.160917741E0
5.950582667E0,4.371393040E-1,1.165335929E1,-2.314421803E0,1.188900424E1
5.960506667E0,-1.046206336E0,2.002926066E1,2.651852339E0,2.023111838E1
5.970430667E0,-3.939695447E0,2.848626641E1,9.287569993E0,3.021998562E1
5.980353667E0,-6.526243451E0,3.002335673E1,5.234600530E0,3.116720786E1
5.990277667E0,-7.392216089E0,2.771478712E1,-1.584106030E0,2.872740287E1
6.000201667E0,-7.042599370E0,2.393616667E1,-2.914479153E0,2.512035966E1
6.010124667E0,-6.008996415E0,1.778789075E1,-1.442780582E0,1.883079157E1
6.020048667E0,-4.564694096E0,1.287645297E1,-7.573896973E-1,1.368258427E1
6.029972667E0,-3.690204988E0,9.810820949E0,-1.062715657E0,1.053561508E1
6.039895667E0,-2.988499348E0,7.622454298E0,-1.087887482E0,8.259324249E0
6.049819667E0,-2.333870227E0,5.441115416E0,3.449433312E-2,5.920631475E0
6.059743667E0,-2.253589418E0,2.960682682E0,2.616215606E0,4.548504293E0
6.069666667E0,-2.736196086E0,2.282741296E-1,5.044409316E0,5.743251992E0
6.079590667E0,-2.742621007E0,-1.689766386E0,4.929007498E0,5.888327041E0
6.089514667E0,-1.887911860E0,-2.704257132E0,4.230955199E0,5.364531641E0
6.099437667E0,-7.131261286E-1,-3.604037202E0,3.867398719E0,5.334267136E0
6.109361667E0,4.177499369E-1,-4.277106103E0,2.889969379E0,5.178810156E0
6.119285667E0,1.346350640E0,-4.587117290E0,9.085292584E-1,4.866182333E0
6.129208667E0,2.124997744E0,-5.034786553E0,-5.370843359E-1,5.491188453E0
6.139132667E0,2.698999901E0,-5.571606558E0,-1.276058337E0,6.321054104E0
6.149056667E0,3.115365509E0,-6.287709796E0,-1.591206304E0,7.195327251E0
6.158979667E0,3.487013659E0,-7.588612368E0,-1.551503710E0,8.494319613E0
6.168903667E0,3.731096321E0,-8.694474630E0,-1.504893215E0,9.580170793E0
6.178827667E0,3.931273995E0,-9.690981095E0,-1.283100724E0,1.053643095E1
6.188750667E0,4.160800306E0,-1.060984063E1,-1.046058109E0,1.144444035E1
6.198674667E0,4.434801416E0,-1.133614434E1,-5.375626016E-1,1.218460527E1
6.208598667E0,4.772861112E0,-1.176843834E1,-1.371505362E-1,1.270020293E1
6.218521667E0,5.084073318E0,-1.157675024E1,-1.005253315E-1,1.264432889E1
6.228445667E0,5.417296783E0,-1.072880574E1,-2.788145564E-1,1.202215100E1
6.238369667E0,5.603419504E0,-9.663216761E0,-5.400675853E-1,1.118336896E1
6.248292667E0,5.362081525E0,-8.802938141E0,-6.973184735E-1,1.033101598E1
6.258216667E0,4.923830958E0,-8.190834065E0,-8.604528666E-1,9.595532977E0
6.268140667E0,4.489101876E0,-7.947878746E0,-1.125008311E0,9.197089536E0
6.278063667E0,3.941602224E0,-8.179241960E0,-1.349013462E0,9.179110221E0
6.287987667E0,6.636188647E0,-1.019954385E1,-9.718037331E-1,1.220713303E1
6.297911667E0,9.239281932E0,-1.242734236E1,-7.084007744E-1,1.550177411E1
6.307834667E0,2.367691107E0,-1.003221291E1,-1.365020069E0,1.039781404E1
6.317758667E0,7.527483237E-1,-8.204641095E0,-6.611152916E-1,8.265581587E0
6.327682667E0,4.809372881E-1,-6.667726189E0,1.859765995E0,6.938919423E0
6.337605667E0,8.371204296E-1,-4.866120109E0,4.927149253E0,6.975435133E0
6.347529667E0,2.889726135E-1,-2.017417454E0,6.939271469E0,7.232355555E0
6.357453667E0,-1.397956704E0,2.022781690E0,8.307560277E0,8.663803233E0
6.367376667E0,-2.457337986E0,5.460006600E0,5.646051553E0,8.229707176E0
6.377300667E0,-1.269484020E0,6.106427400E0,-1.122050278E0,6.337116229E0
6.387224667E0,-1.192912246E0,9.476566036E0,-3.136638849E0,1.005320082E1
6.397147667E0,-4.004817057E0,1.753834913E1,3.507674503E-1,1.799320115E1
6.407071667E0,-5.448426774E0,2.439310085E1,-1.479187101E0,2.503790562E1
6.416995667E0,-5.746379249E0,2.891188758E1,-3.641833019E0,2.970153305E1
6.426918667E0,-9.466596533E0,3.040056529E1,5.010163928E0,3.223216658E1
6.436842667E0,-1.166848838E1,2.223674829E1,1.348274023E1,2.850282231E1
6.446766667E0,-7.962555842E0,1.261903631E1,4.461021208E0,1.557379476E1
6.456689667E0,-4.603437162E0,9.263011102E0,-3.048059672E0,1.078358364E1
6.466613667E0,-2.379269764E0,8.495922482E0,-4.367300866E0,9.844538602E0
6.476537667E0,-4.938423854E-1,7.799261236E0,-3.170263848E0,8.433441112E0
6.486460667E0,4.880425322E-1,8.621593764E0,-5.819113934E-1,8.654980383E0
6.496384667E0,3.686499900E-1,9.335973828E0,1.707771717E0,9.498041608E0
6.506308667E0,-5.732613149E-1,8.328834786E0,2.406452153E0,8.688448043E0
6.516231667E0,-1.619603599E0,6.379722751E0,2.298609616E0,6.971913968E0
6.526155667E0,-2.004150122E0,3.736988268E0,1.934140239E0,4.660750743E0
6.536079667E0,-2.043142279E0,1.076437318E0,1.514299046E0,2.761566453E0
6.546002667E0,-1.397840344E0,-1.803493561E0,1.149198170E0,2.554839151E0
6.555926667E0,-2.169077271E-1,-4.821140403E0,6.776365994E-1,4.873359735E0
6.565850667E0,6.213543713E-1,-6.631382820E0,3.059537318E-1,6.667452815E0
6.575773667E0,1.398080080E0,-7.991337007E0,-7.713135257E-3,8.112715610E0
6.585697667E0,1.993108240E0,-8.989925081E0,-4.262737155E-2,9.208314206E0
6.595621667E0,2.585675599E0,-9.934431088E0,1.746417135E-3,1.026541000E1
6.605544667E0,3.055829452E0,-1.078078398E1,-2.793920238E-2,1.120554226E1
6.615468667E0,3.325812940E0,-1.158832539E1,-8.133842424E-4,1.205613196E1
6.625392667E0,3.478646586E0,-1.195174855E1,-1.352151809E-1,1.244843600E1
6.635315667E0,3.588977406E0,-1.186917184E1,-2.276134674E-1,1.240200818E1
6.645239667E0,3.683666924E0,-1.191226815E1,-1.610808510E-1,1.246986294E1
6.655163667E0,3.754574354E0,-1.169903891E1,-1.905233359E-1,1.228823173E1
6.665086667E0,3.616028087E0,-1.062387044E1,-7.844507575E-2,1.122267508E1
6.675010667E0,3.355595149E0,-8.761756201E0,2.118521879E-1,9.384736112E0
6.684934667E0,3.228561757E0,-7.450827409E0,3.950810858E-1,8.129854191E0
6.694857667E0,3.391654635E0,-6.979255314E0,3.760022789E-1,7.768828973E0
6.704781667E0,3.631195765E0,-6.860093152E0,1.734190607E-1,7.763796423E0
6.714705667E0,3.714016312E0,-6.885238518E0,-2.869551048E-1,7.828331230E0
6.724628667E0,3.625882107E0,-6.963155006E0,-9.308066384E-1,7.905627722E0
6.734552667E0,3.399733148E0,-7.026003218E0,-1.608679538E0,7.969363623E0
6.744476667E0,3.120021355E0,-7.051211150E0,-2.193529011E0,8.016587894E0
6.754399667E0,2.835920641E0,-6.964696916E0,-2.407570580E0,7.895938520E0
6.764323667E0,2.603453473E0,-6.660307242E0,-2.318425099E0,7.517496756E0
6.774247667E0,2.395088236E0,-6.029398520E0,-2.084747119E0,6.814415949E0
6.784170667E0,1.914226669E0,-4.819505521E0,-1.567297770E0,5.417408929E0
6.794094667E0,1.143706318E0,-3.503418315E0,-7.405804141E-1,3.759050862E0
6.804018667E0,1.226073414E-2,-2.129443674E0,5.995828485E-1,2.212279431E0
6.813941667E0,-1.433248305E0,-3.175254446E-1,3.058406905E0,3.392473420E0
6.823865667E0,-2.048478156E0,1.502526847E0,4.648295831E0,5.297216610E0
6.833789667E0,-2.233116562E0,3.289558157E0,3.976106644E0,5.622937532E0
6.843712667E0,-2.189115095E0,5.815753539E0,4.320339538E0,7.568391365E0
6.853636667E0,-7.401464045E-2,7.927524004E0,-8.217144781E-1,7.970340625E0
6.863560667E0,-3.608647147E-1,1.136016937E1,-3.222909254E0,1.181400930E1
6.873484667E0,-5.324072869E0,2.257773218E1,7.181310529E0,2.428314154E1
6.883407667E0,-1.637803701E1,3.721856142E1,1.920025178E1,4.496788941E1
6.893331667E0,-1.982499870E1,3.653980259E1,8.923484924E0,4.251842342E1
6.903256042E0,-8.667119016E0,2.264454012E1,-2.947840442E0,2.442506730E1
6.913179042E0,-2.618758560E0,1.251302395E1,-5.365941857E0,1.386459509E1
6.923103042E0,-6.256585068E-1,8.346792170E0,-3.805349820E0,9.194622089E0
6.933027042E0,8.458511996E-1,6.171335002E0,-3.603143455E-1,6.239444397E0
6.942950042E0,-5.592481703E-2,6.357716755E0,-1.872408552E-1,6.360719225E0
6.952874042E0,-2.417916058E0,7.424593876E0,2.899473444E-1,7.813768729E0
6.962798042E0,-4.342325654E0,7.258510732E0,2.313452481E0,8.768912847E0
6.972721042E0,-4.270682644E0,5.090891172E0,2.902503471E0,7.251236416E0
6.982645042E0,-2.703700185E0,2.479942737E0,3.287081861E0,4.925953495E0
6.992569042E0,-7.884072760E-1,-1.578660518E-1,3.426162563E0,3.519246742E0
7.002492042E0,1.523383865E-1,-2.126381487E0,2.352517875E0,3.174751260E0
7.012416042E0,7.268849194E-1,-3.784301598E0,7.492237683E-1,3.925638359E0
7.022340042E0,1.498385264E0,-5.044064915E0,-3.160712421E-1,5.271399273E0
7.032263042E0,2.373092765E0,-6.139273549E0,-6.911731229E-1,6.618154521E0
7.042187042E0,3.177585146E0,-7.204249156E0,-6.962561075E-1,7.904620536E0
7.052111042E0,3.864045048E0,-8.359380056E0,-3.915447628E-1,9.217558590E0
7.062034042E0,4.260290095E0,-9.430249656E0,-1.798953637E-1,1.034949480E1
7.071958042E0,4.425801381E0,-1.022769351E1,-2.003431499E-1,1.114601139E1
7.081882042E0,4.748325026E0,-1.087550303E1,-2.375928372E-1,1.186927154E1
7.091805042E0,5.280504681E0,-1.137573817E1,1.291656150E-1,1.254224192E1
7.101729042E0,6.044679633E0,-1.151226247E1,6.330359387E-1,1.301810561E1
7.111653042E0,6.718585271E0,-1.091180488E1,7.004630329E-1,1.283345325E1
7.121576042E0,6.837512959E0,-9.666957225E0,4.055435818E-1,1.184762048E1
7.131500042E0,6.303331218E0,-8.398364612E0,2.327951968E-2,1.050071686E1
7.141424042E0,5.472447721E0,-7.670019643E0,-4.900580674E-1,9.434884329E0
7.151347042E0,4.590560423E0,-7.571423893E0,-1.253479314E0,8.942645870E0
7.161271042E0,3.646268717E0,-7.834789503E0,-2.143331396E0,8.903542642E0
7.171195042E0,2.708275924E0,-8.102976726E0,-2.848600913E0,9.005971212E0
7.181118042E0,2.007385971E0,-8.154459121E0,-3.041135691E0,8.931590468E0
7.191042042E0,1.670533724E0,-8.150929157E0,-2.803591971E0,8.780003245E0
7.200966042E0,1.492200371E0,-8.370496783E0,-2.475656143E0,8.855549202E0
7.210889042E0,1.394385809E0,-8.614849001E0,-2.316673273E0,9.029225335E0
7.220813042E0,1.410022433E0,-8.760323634E0,-2.470027614E0,9.210454377E0
7.230737042E0,1.513054758E0,-8.785067296E0,-2.559604619E0,9.274606078E0
7.240661042E0,1.561904444E0,-8.577339697E0,-2.370075894E0,9.034797260E0
7.250584042E0,1.389543145E0,-7.667434589E0,-1.205234230E0,7.884984013E0
7.260508042E0,9.868331239E-1,-5.041684513E0,1.528141013E0,5.359816909E0
7.270432042E0,5.867368081E-1,-1.333009633E0,4.972634743E0,5.181531729E0
7.280355042E0,-2.698846704E-1,2.438001244E0,5.981499299E0,6.464906934E0
7.290279042E0,-1.769469490E0,6.019522573E0,6.222429727E0,8.836532464E0
7.300203042E0,-2.404911851E0,7.897730686E0,3.869245854E0,9.117500451E0
7.310126042E0,-3.485708853E0,1.088952699E1,1.229195243E0,1.149969065E1
7.320050042E0,-6.086395424E0,1.846675833E1,2.427277889E0,1.959482204E1
7.329974042E0,-9.908125634E0,2.861915023E1,5.444141350E0,3.077117789E1
7.339897042E0,-1.321663345E1,3.591224666E1,6.924928833E0,3.888860372E1
7.349821042E0,-1.191927078E1,3.229013981E1,1.405042360E0,3.444845844E1
7.359745042E0,-6.924999000E0,2.040670778E1,-3.656378553E0,2.185768601E1
7.369668042E0,-3.959903424E0,1.260908435E1,-3.128704762E0,1.358155502E1
7.379592042E0,-3.290674098E0,8.335791804E0,-4.665336956E-1,8.973940868E0
7.389516042E0,-3.915673331E0,5.936425452E0,1.499986231E-2,7.111530762E0
7.399439042E0,-4.871508611E0,5.375777459E0,-1.359371951E0,7.380953294E0
7.409363042E0,-5.246715961E0,5.077201086E0,-1.545850183E0,7.462951964E0
7.419287042E0,-4.931662134E0,4.973943935E0,-7.713320906E-1,7.046727103E0
7.429210042E0,-3.425263846E0,4.752103497E0,5.543674994E-1,5.884066908E0
7.439134042E0,-1.419694313E0,3.896868685E0,1.626128945E0,4.454819058E0
7.449058042E0,1.866717750E-1,2.418953939E0,1.407403173E0,2.804811616E0
7.458981042E0,1.247685893E0,5.569741881E-1,9.259048444E-1,1.650527223E0
7.468905042E0,2.069533687E0,-1.231251708E0,9.181315559E-1,2.577191496E0
7.478829042E0,2.725486911E0,-2.995266039E0,8.447460759E-1,4.136845837E0
7.488753042E0,3.077792179E0,-4.718122988E0,9.290734506E-1,5.709349061E0
7.498676042E0,3.338095309E0,-6.455671651E0,1.247078367E0,7.373857960E0
7.508600042E0,3.520219412E0,-8.364439067E0,1.373461255E0,9.178353961E0
7.518524042E0,3.836778897E0,-1.001102961E1,1.212996116E0,1.078948311E1
7.528447042E0,4.116324337E0,-1.120028311E1,7.967743492E-1,1.195931926E1
7.538371042E0,4.422202128E0,-1.224455840E1,4.356912410E-1,1.302593217E1
7.548295042E0,4.627770642E0,-1.270971376E1,4.286383295E-1,1.353280517E1
7.558218042E0,4.631774523E0,-1.209205132E1,8.069958669E-1,1.297390777E1
7.568142042E0,4.306447723E0,-1.058997296E1,1.474970089E0,1.152686237E1
7.578066042E0,3.722688317E0,-8.201459625E0,2.129613243E0,9.255139159E0
7.587989042E0,3.618772770E0,-6.920144641E0,2.482572230E0,8.194332377E0
7.597913042E0,3.914925472E0,-6.900824271E0,2.389778087E0,8.286076055E0
7.607837042E0,4.077428074E0,-7.375491883E0,1.609871201E0,8.579917569E0
7.617760042E0,3.880931222E0,-7.919113369E0,3.026635035E-1,8.824148055E0
7.627684042E0,3.436594580E0,-8.355402195E0,-9.658930021E-1,9.086026494E0
7.637608042E0,3.016297012E0,-8.561165714E0,-1.907700738E0,9.275285880E0
7.647531042E0,2.873202488E0,-8.381167951E0,-2.503818673E0,9.206974352E0
7.657455042E0,2.843589265E0,-8.287313708E0,-2.887887771E0,9.225262282E0
7.667379042E0,2.856212819E0,-8.558789406E0,-3.079291697E0,9.533774967E0
7.677302042E0,2.860798790E0,-8.808767231E0,-3.039446723E0,9.747655422E0
7.687226042E0,2.978326070E0,-9.043529431E0,-2.801205722E0,9.924847820E0
7.697150042E0,3.311359208E0,-9.473150677E0,-2.415064225E0,1.032173526E1
7.707074042E0,3.732316927E0,-8.692361446E0,-2.707415214E0,9.839585067E0
7.716997042E0,3.800000787E0,-6.865375527E0,-3.258764380E0,8.496642419E0
7.726921042E0,3.396500223E0,-4.637125018E0,-3.148140323E0,6.553619586E0
7.736845042E0,2.750833713E0,-1.482061007E0,-1.492936243E0,3.463011634E0
7.746768042E0,1.804866195E0,4.108316867E0,3.369425860E0,5.611491788E0
7.756692042E0,1.788078547E-3,1.082597009E1,8.568151968E0,1.380633405E1
7.766616042E0,-1.438003991E0,1.702892099E1,1.065824154E1,2.014075764E1
7.776539042E0,-2.154772643E0,2.103197160E1,6.507082710E0,2.212078208E1
7.786463042E0,-2.591609646E0,2.309138668E1,1.016631997E-1,2.323658570E1
7.796387042E0,-3.542814808E0,2.625662953E1,-3.259043585E-1,2.649657232E1
7.806310042E0,-5.802769797E0,3.019881063E1,1.077067063E0,3.077012145E1
7.816234042E0,-8.935815532E0,2.899653421E1,-5.773875488E-1,3.034767160E1
7.826158042E0,-1.005487671E1,2.064991453E1,-1.888691002E0,2.304531774E1
7.836081042E0,-9.225593015E0,1.345252767E1,-6.944245403E-1,1.632679676E1
7.846005042E0,-8.332933685E0,8.944748908E0,1.445936470E0,1.231003855E1
7.855929042E0,-7.910584620E0,5.693551995E0,3.739723595E0,1.043932066E1
7.865853042E0,-7.500393671E0,4.205015781E0,4.042056220E0,9.501383132E0
7.875776042E0,-7.022634053E0,3.916933406E0,3.111706322E0,8.622208103E0
7.885700042E0,-6.168666918E0,3.360587209E0,3.470231273E0,7.835081558E0
7.895623167E0,-4.473766384E0,2.312206001E0,4.115279732E0,6.503568983E0
7.905546167E0,-2.465484619E0,1.170327814E0,3.490694189E0,4.430939801E0
7.915470167E0,-6.605359787E-1,1.852807224E-1,2.280108295E0,2.381077605E0
7.925394167E0,7.955794707E-1,-5.821949834E-1,1.074826922E0,1.458475439E0
7.935317167E0,2.097747380E0,-1.438871133E0,7.296499946E-1,2.646371728E0
7.945241167E0,2.920531898E0,-2.391694220E0,5.215476261E-1,3.810737427E0
7.955165167E0,3.567648517E0,-3.906007299E0,-4.443759643E-2,5.290272551E0
7.965088167E0,4.092543711E0,-5.665764272E0,-8.506318831E-1,7.040836130E0
7.975012167E0,4.522301197E0,-7.283083071E0,-1.682349778E0,8.736407037E0
7.984936167E0,5.094062701E0,-9.057862710E0,-2.243395382E0,1.063142392E1
7.994859167E0,5.590693624E0,-1.048780105E1,-2.437417692E0,1.213222284E1
8.004783167E0,5.892167877E0,-1.133201854E1,-2.191977891E0,1.295905296E1
8.014707167E0,6.161782406E0,-1.169569664E1,-1.582962899E0,1.331400217E1
8.024631167E0,6.348314433E0,-1.176429033E1,-9.695730203E-1,1.340297336E1
8.034554167E0,6.395085726E0,-1.117267256E1,-2.486575234E-1,1.287585198E1
8.044478167E0,6.092582948E0,-1.009632879E1,6.735162127E-1,1.181139476E1
8.054402167E0,5.289484835E0,-8.834310792E0,1.822844921E0,1.045688580E1
8.064325167E0,4.113144036E0,-7.977729367E0,2.511755683E0,9.320463311E0
8.074249167E0,2.751604376E0,-7.823030752E0,1.994666523E0,8.529351167E0
8.084173167E0,2.072900222E0,-8.168377833E0,5.016898604E-1,8.442215614E0
8.094096167E0,2.465398081E0,-8.251955010E0,-8.635016048E-1,8.655552219E0
8.104020167E0,2.746138692E0,-8.024943295E0,-1.661898556E0,8.643083906E0
8.113944167E0,2.593241896E0,-7.965697551E0,-2.343616658E0,8.698837856E0
8.123868167E0,2.469721220E0,-8.230072390E0,-2.677073427E0,9.000018699E0
8.133791167E0,2.360349928E0,-8.203358216E0,-3.129455545E0,9.091745147E0
8.143715167E0,2.390081850E0,-7.857870802E0,-3.662386567E0,8.992869406E0
8.153639167E0,2.641578489E0,-7.199349189E0,-3.994703713E0,8.646746406E0
8.163562167E0,3.002213700E0,-6.176641935E0,-3.874493145E0,7.885168979E0
8.173486167E0,4.007390709E0,-4.042276075E0,-1.757901067E0,5.957297401E0
8.183410167E0,4.747667214E0,-1.978718242E0,-7.113611466E-1,5.192466133E0
8.193333167E0,4.491615302E0,-6.082770735E-1,-3.746790540E-1,4.548075792E0
8.203257167E0,3.293774584E0,1.023836936E0,1.684292661E0,3.838493826E0
8.213181167E0,5.225525066E-1,2.726008190E0,4.840152624E0,5.579539336E0
8.223104167E0,-1.798252556E0,2.771114781E0,5.260058137E0,6.211360639E0
8.233028167E0,-4.591262966E-2,1.565344654E0,3.389580920E0,3.733854666E0
8.242952167E0,1.813089427E0,2.157558841E0,8.176641119E-1,2.934438281E0
8.252876167E0,1.157084455E0,5.444327291E0,2.323163098E-1,5.570773282E0
8.262799167E0,-3.049783723E0,1.307826494E1,4.884539423E0,1.428988873E1
8.272723167E0,-1.135872160E1,2.447798605E1,1.341646087E1,3.013625358E1
8.282647167E0,-1.875514769E1,3.330349035E1,1.502278574E1,4.106777478E1
8.292570167E0,-1.733897194E1,3.215466216E1,4.802714657E0,3.684600812E1
8.302494167E0,-1.138418740E1,2.563607856E1,-2.448275971E0,2.815674523E1
8.312418167E0,-5.809022225E0,1.798405431E1,-3.108818967E0,1.915295549E1
8.322341167E0,-2.559591755E0,1.269370409E1,-9.755757719E-1,1.298589163E1
8.332265167E0,-1.285624967E0,8.829340074E0,1.472268675E0,9.043099731E0
8.342189167E0,-2.137744966E0,6.022859579E0,2.403344797E0,6.827946782E0
8.352112167E0,-3.868565238E0,4.135704056E0,2.035565311E0,6.017754662E0
8.362036167E0,-4.784950523E0,2.997103234E0,2.451731530E0,6.155433924E0
8.371960167E0,-4.417315317E0,1.589103645E0,3.340335962E0,5.761576984E0
8.381884167E0,-3.424742859E0,1.083991921E-1,4.930482166E0,6.004187574E0
8.391807167E0,-2.183958143E0,-1.181560315E0,5.350773010E0,5.898858343E0
8.401731167E0,-1.081666776E0,-2.331708804E0,3.942733660E0,4.706593001E0
8.411655167E0,-2.660921663E-2,-3.346529333E0,2.055282853E0,3.927359703E0
8.421578167E0,8.409421697E-1,-4.006901005E0,2.704986280E-1,4.103121849E0
8.431502167E0,1.585493282E0,-4.968320668E0,-1.101266277E0,5.330176978E0
8.441426167E0,2.399712214E0,-6.304638655E0,-1.518289770E0,6.914643238E0
8.451349167E0,3.162939041E0,-7.993491706E0,-1.191424568E0,8.678685703E0
8.461273167E0,3.760321582E0,-9.250024436E0,-8.834802981E-1,1.002414624E1
8.471197167E0,4.362246240E0,-1.040910805E1,-8.235182711E-1,1.131622309E1
8.481121167E0,4.849259078E0,-1.124468570E1,-1.097301353E0,1.229480949E1
8.491044167E0,5.197882354E0,-1.167376491E1,-1.515029948E0,1.286818106E1
8.500968167E0,5.526248537E0,-1.175567738E1,-1.763448320E0,1.310897111E1
8.510892167E0,5.770589646E0,-1.154390059E1,-1.711191754E0,1.301881419E1
8.520815167E0,5.674213498E0,-1.076405276E1,-1.597924755E0,1.227252599E1
8.530739167E0,5.171199170E0,-9.710648789E0,-1.621761514E0,1.112061649E1
8.540663167E0,4.227412371E0,-8.883637319E0,-1.898019649E0,1.001960608E1
8.550587167E0,3.250353453E0,-8.704900800E0,-2.800173104E0,9.704692933E0
8.560510167E0,2.993567423E0,-8.709460459E0,-3.740051039E0,9.940026618E0
8.570434167E0,3.215949898E0,-8.254264660E0,-3.450161290E0,9.506778201E0
8.580358167E0,3.210947897E0,-7.868174180E0,-2.786974769E0,8.943465754E0
8.590281167E0,3.144866174E0,-7.656613147E0,-2.642405870E0,8.688855904E0
8.600205167E0,3.070291078E0,-7.599396388E0,-3.026921695E0,8.737263171E0
8.610129167E0,3.168775439E0,-7.533814017E0,-3.174188499E0,8.767836909E0
8.620052167E0,3.527519661E0,-7.000748509E0,-2.355146929E0,8.185388916E0
8.629976167E0,3.937083203E0,-6.086954418E0,-1.850717575E0,7.481764082E0
8.639900167E0,4.219585288E0,-4.566562573E0,-8.950122499E-1,6.281674989E0
8.649824167E0,4.193536527E0,-2.348870382E0,6.866870660E-1,4.855355785E0
8.659747167E0,3.755742627E0,9.101600468E-2,2.006483161E0,4.259091602E0
8.669671167E0,2.408716634E0,2.317893587E0,5.746048297E0,6.647677604E0
8.679595167E0,-1.441174644E0,2.340075585E0,7.044422532E0,7.561536015E0
8.689518167E0,-2.721816906E0,1.725708051E0,5.155408180E0,6.079851071E0
8.699442167E0,-3.179832816E0,4.265380681E0,7.116246221E0,8.885143182E0
8.709366167E0,-3.196375759E0,9.975101981E0,9.875010513E0,1.439566984E1
8.719290167E0,-3.590411728E0,1.449273330E1,7.598267875E0,1.675303106E1
8.729213167E0,-6.109388430E0,1.788948027E1,4.150932837E0,1.935428570E1
8.739137167E0,-8.271161944E0,1.945453198E1,2.622476220E-4,2.113979505E1
8.749061167E0,-1.049808747E1,2.140849019E1,-4.506028104E-1,2.384819355E1
8.758984167E0,-1.054122005E1,2.121330078E1,-7.840151399E-1,2.370097318E1
8.768908167E0,-7.946542658E0,1.710250118E1,-1.913160722E0,1.895529664E1
8.778832167E0,-5.112965580E0,1.307889527E1,-2.873821709E0,1.433383304E1
8.788755167E0,-4.507142875E0,1.068771502E1,-2.640774204E0,1.189601940E1
8.798679167E0,-5.525657383E0,8.816603669E0,-7.982709441E-1,1.043564211E1
8.808603167E0,-6.862151372E0,6.973958321E0,1.635120063E0,9.919618629E0
8.818527167E0,-6.750109949E0,4.770663144E0,3.359421859E0,8.922383447E0
8.828450167E0,-5.375666946E0,2.568981798E0,4.216595022E0,7.299118863E0
8.838374167E0,-3.983646628E0,7.329911667E-1,4.379248189E0,5.965277128E0
8.848298167E0,-2.856376541E0,-2.787806243E-1,3.840569939E0,4.794432504E0
8.858221167E0,-1.613694695E0,-6.199498701E-1,3.112543643E0,3.560375871E0
8.868145167E0,-9.418724209E-2,-8.024701220E-1,2.475580714E0,2.604098578E0
8.878069167E0,1.342688237E0,-1.363432111E0,2.072840142E0,2.821068073E0
8.887993167E0,2.520986683E0,-2.312496607E0,1.685493972E0,3.813647118E0
8.897916542E0,3.345414854E0,-3.676826851E0,1.020246161E0,5.074619046E0
8.907840542E0,3.884795647E0,-5.445566316E0,4.547717290E-1,6.704673523E0
8.917764542E0,4.271850041E0,-7.174389179E0,-1.039115272E-1,8.350530550E0
8.927687542E0,4.539798405E0,-8.745707933E0,-6.034320706E-1,9.872249343E0
8.937611542E0,4.974483633E0,-1.027803687E1,-1.241320614E0,1.148583502E1
8.947535542E0,5.152944163E0,-1.084394443E1,-1.665018631E0,1.212090143E1
8.957459542E0,5.486404440E0,-1.135999630E1,-1.735377592E0,1.273427206E1
8.967382542E0,5.858227129E0,-1.157806704E1,-1.676284461E0,1.308359243E1
8.977306542E0,5.990468928E0,-1.111532073E1,-1.251522835E0,1.268867141E1
8.987230542E0,6.043808398E0,-1.032173779E1,-7.328712988E-1,1.198344655E1
8.997153542E0,5.850001266E0,-8.896490083E0,-2.478336507E-1,1.065042122E1
9.007077542E0,5.482742913E0,-7.469096450E0,1.089704651E-1,9.266053431E0
9.017001542E0,5.236695002E0,-6.497595602E0,1.647283441E-1,8.346787321E0
9.026925542E0,5.211408718E0,-6.062603688E0,-2.703343213E-2,7.994665416E0
9.036848542E0,5.206601138E0,-6.246579312E0,-6.820737590E-1,8.160494661E0
9.046772542E0,5.032935909E0,-6.892131216E0,-1.726071310E0,8.706964955E0
9.056696542E0,4.694921236E0,-7.574912342E0,-2.726573031E0,9.319644998E0
9.066619542E0,4.318275471E0,-7.885867855E0,-3.229910125E0,9.553362460E0
9.076543542E0,3.911475615E0,-7.796372711E0,-3.370464326E0,9.351101470E0
9.086467542E0,3.466592259E0,-7.375872536E0,-3.507110832E0,8.872462113E0
9.096391542E0,2.734461802E0,-6.236041460E0,-3.557696849E0,7.682623335E0
9.106314542E0,1.935666363E0,-4.923706997E0,-3.632443560E0,6.417502714E0
9.116238542E0,1.203202322E0,-3.522665010E0,-2.839801438E0,4.682022727E0
9.126162542E0,7.534798104E-1,-1.973087373E0,-2.512972489E0,3.282656902E0
9.136085542E0,6.937244824E-1,-1.197897436E0,-2.829607403E0,3.150061901E0
9.146009542E0,1.365614292E-1,-4.021013260E-1,-1.764170744E0,1.814561355E0
9.155933542E0,-3.410682644E0,2.525077395E0,4.669689916E0,6.309895075E0
9.165857542E0,-8.729637446E0,7.089558944E0,9.237383925E0,1.455327035E1
9.175780542E0,-6.177787989E0,8.546475170E0,4.239251813E0,1.136567456E1
9.185704542E0,-5.782624969E0,1.315912140E1,8.364793993E0,1.663042411E1
9.195628542E0,-1.008844090E1,2.159184718E1,1.752216754E1,2.958058248E1
9.205551542E0,-1.210479124E1,2.284160299E1,8.187505830E0,2.711641661E1
9.215475542E0,-1.241517548E1,2.240749166E1,-3.224084544E-1,2.561905955E1
9.225399542E0,-1.165786750E1,2.132802783E1,-2.070100575E0,2.439417885E1
9.235323542E0,-8.768828409E0,1.719987252E1,-1.465748737E0,1.936172477E1
9.245246542E0,-4.779816083E0,1.246522531E1,9.728746507E-1,1.338562545E1
9.255170542E0,-2.669049293E0,1.039785801E1,1.992008379E0,1.091821289E1
9.265094542E0,-2.810228268E0,1.025681849E1,1.293478070E0,1.071320652E1
9.275017542E0,-3.657548873E0,1.007575361E1,4.081950018E-1,1.072684006E1
9.284941542E0,-3.828799786E0,8.766099513E0,3.789957610E-1,9.573288164E0
9.294865542E0,-3.528890541E0,6.393361382E0,1.231324798E0,7.405693686E0
9.304789542E0,-2.879250556E0,3.327549271E0,2.351220232E0,4.989078521E0
9.314712542E0,-1.836463379E0,1.512686384E-1,2.909564276E0,3.443986675E0
9.324636542E0,-5.946241173E-1,-2.377731653E0,2.487235385E0,3.491922896E0
9.334560542E0,4.477566782E-1,-4.002549507E0,1.787652723E0,4.406426087E0
9.344483542E0,1.246924293E0,-5.032998474E0,1.345724257E0,5.356945735E0
9.354407542E0,2.122869357E0,-5.905136417E0,9.603699414E-1,6.348190359E0
9.364331542E0,2.974099995E0,-6.829753119E0,4.918612026E-1,7.465435412E0
9.374255542E0,3.642700161E0,-7.721229558E0,1.237855554E-1,8.538265235E0
9.384178542E0,4.233493183E0,-8.612620627E0,-3.011115794E-1,9.601581473E0
9.394102542E0,4.862515593E0,-9.424242226E0,-6.804100800E-1,1.062654023E1
9.404026542E0,5.598906623E0,-9.935296476E0,-8.226570493E-1,1.143392479E1
9.413950542E0,6.296185920E0,-1.022045583E1,-8.654517974E-1,1.203530977E1
9.423873542E0,6.752224302E0,-1.016965990E1,-9.759897548E-1,1.224610434E1
9.433797542E0,6.814011830E0,-9.963784111E0,-1.116622308E0,1.212248310E1
9.443721542E0,6.627316666E0,-9.937879776E0,-1.504683446E0,1.203938756E1
9.453644542E0,6.212733289E0,-9.867634835E0,-1.829284460E0,1.180315864E1
9.463568542E0,5.478237634E0,-9.628738069E0,-1.957625727E0,1.124971035E1
9.473492542E0,4.734767964E0,-9.204441882E0,-1.904765728E0,1.052463351E1
9.483416542E0,3.831873960E0,-8.445551643E0,-1.844920499E0,9.455915199E0
9.493339542E0,3.001735398E0,-7.601275098E0,-1.967841836E0,8.406081133E0
9.503263542E0,2.509646885E0,-6.963397080E0,-2.208552409E0,7.724307744E0
9.513187542E0,2.421904444E0,-6.840870430E0,-2.397280065E0,7.642648827E0
9.523111542E0,2.752865621E0,-7.260261973E0,-2.457422771E0,8.144237209E0
9.533034542E0,3.035709183E0,-7.826809807E0,-2.178771809E0,8.673034567E0
9.542958542E0,3.117651771E0,-8.132674150E0,-1.786506376E0,8.891104905E0
9.552882542E0,3.106913944E0,-8.246754497E0,-1.754324909E0,8.985517785E0
9.562805542E0,3.049971127E0,-8.152457035E0,-1.865481064E0,8.901960412E0
9.572729542E0,2.921042653E0,-7.635436871E0,-2.187648174E0,8.462753153E0
9.582653542E0,2.583896291E0,-6.267920480E0,-2.538258481E0,7.239205985E0
9.592577542E0,2.017384125E0,-4.497913923E0,-2.671384086E0,5.606903004E0
9.602500542E0,1.444967440E0,-3.221464992E0,-3.879316514E0,5.245461296E0
9.612424542E0,9.840627131E-1,-1.731646484E0,-3.795390843E0,4.286253681E0
9.622348542E0,6.565753672E-1,2.275034666E-1,-3.841228335E0,3.903573256E0
9.632271542E0,-1.882212871E-1,3.035125338E0,-1.215521529E0,3.274890175E0
9.642195542E0,-2.529079229E0,1.131321039E1,1.127648402E1,1.617232398E1
9.652119542E0,-6.450230817E0,2.404493892E1,2.414907549E1,3.468346021E1
9.662043542E0,-1.206882151E1,3.215783135E1,2.432191451E1,4.208726761E1
9.671966542E0,-1.259580299E1,2.599922574E1,6.739548123E0,2.966539231E1
9.681890542E0,-1.142381632E1,2.207092827E1,-2.064358024E0,2.493774304E1
9.691814542E0,-1.298414932E1,2.076564964E1,-4.498897424E0,2.490061077E1
9.701738542E0,-1.506485061E1,1.738753073E1,-5.501414827E0,2.365462986E1
9.711661542E0,-1.362322076E1,1.381186948E1,-4.957505073E0,2.002340477E1
9.721585542E0,-8.493193002E0,1.121611971E1,-3.237991854E0,1.443676764E1
9.731509542E0,-2.977845429E0,9.996032674E0,-1.220945845E0,1.050137807E1
9.741433542E0,8.759254763E-1,9.316338294E0,6.544338244E-1,9.380281887E0
9.751356542E0,2.749706078E0,9.092414492E0,1.799834520E0,9.668106801E0
9.761280542E0,3.191287512E0,8.618942637E0,2.467699252E0,9.516303261E0
9.771204542E0,2.697654456E0,7.171624031E0,3.683800825E0,8.501759778E0
9.781127542E0,1.065699784E0,4.610716653E0,4.010074289E0,6.202831602E0
9.791051542E0,-1.174385197E0,1.581860114E0,3.103572260E0,3.676087973E0
9.800975542E0,-2.663477773E0,-1.262967006E0,2.847066604E0,4.098168829E0
9.810899542E0,-2.469066624E0,-3.738158296E0,3.340191536E0,5.588112108E0
9.820822542E0,-1.393022531E0,-5.573508072E0,3.748297952E0,6.859609431E0
9.830746542E0,-7.527471542E-2,-6.628951548E0,3.327378532E0,7.417554368E0
9.840670542E0,1.391601950E0,-7.293303419E0,2.080704208E0,7.710911798E0
9.850593542E0,2.547620750E0,-8.033144014E0,5.169499969E-1,8.443282036E0
9.860517542E0,3.560064386E0,-9.079147160E0,-7.030504259E-1,9.777486972E0
9.870441542E0,4.256311650E0,-1.012550874E1,-1.461182354E0,1.108048600E1
9.880365542E0,4.706548132E0,-1.096469879E1,-1.753881691E0,1.206036135E1
9.890288542E0,5.074632989E0,-1.172185709E1,-1.656161268E0,1.288008943E1
9.900212792E0,5.218313695E0,-1.185509057E1,-1.545793903E0,1.304467129E1
9.910136792E0,5.301683296E0,-1.167544423E1,-1.354958326E0,1.289417526E1
9.920060792E0,5.287382761E0,-1.137334666E1,-1.256580092E0,1.260509517E1
9.929983792E0,5.188683515E0,-1.092763563E1,-1.032893761E0,1.214094422E1
9.939907792E0,5.023387406E0,-1.040175460E1,-9.110418069E-1,1.158710131E1
9.949831792E0,4.884722441E0,-9.839385767E0,-8.456354374E-1,1.101767330E1
9.959755792E0,4.733304114E0,-9.167788610E0,-8.517842963E-1,1.035268334E1
9.969678792E0,4.553782314E0,-8.584237658E0,-9.611349034E-1,9.764724770E0
9.979602792E0,4.364606177E0,-8.161641841E0,-1.125031189E0,9.323512203E0
9.989526792E0,4.232941498E0,-7.891786407E0,-1.232942723E0,9.039813835E0
9.999449792E0,4.124980263E0,-7.778430530E0,-1.297990074E0,8.899675382E0
1.000937379E1,4.026743824E0,-7.733177758E0,-1.373315075E0,8.826250527E0
1.001929779E1,3.908733563E0,-7.756272506E0,-1.346299769E0,8.789225468E0
1.002922179E1,3.791240197E0,-7.871066798E0,-1.029425193E0,8.796983062E0
1.003914479E1,3.621980260E0,-7.612706405E0,-3.184230653E-1,8.436434855E0
1.004906879E1,3.393866052E0,-6.766571615E0,3.751354292E-2,7.570087547E0
1.005899279E1,2.916237703E0,-5.159294239E0,4.352293110E-1,5.942405569E0
1.006891679E1,2.050763394E0,-3.137910034E0,6.461066584E-1,3.803887971E0
1.007883979E1,1.128965195E0,-4.017083931E-1,6.090857434E-1,1.344216310E0
1.008876379E1,5.128794578E-1,3.002620082E0,5.821417737E-1,3.101235518E0
1.009868779E1,5.947729290E-2,1.115807791E1,9.455125465E0,1.462551325E1
1.010861079E1,-1.185384102E0,1.691285610E1,1.537166921E1,2.288532393E1
1.011853479E1,-8.413005310E-1,1.216420480E1,4.967292727E0,1.316623188E1
1.012845879E1,1.151532305E0,8.963220847E0,-3.733308323E0,9.777675881E0
1.013838279E1,1.530019139E0,1.023185790E1,-4.938986356E0,1.146409442E1
1.014830579E1,4.276000102E-1,1.148174468E1,-5.490068305E0,1.273397631E1
1.015822979E1,-7.953984994E-1,1.262642719E1,-6.200991495E0,1.408941510E1
1.016815379E1,-1.836713640E0,1.761534176E1,5.133762372E0,1.843988336E1
1.017807779E1,-5.754084710E0,2.351890469E1,8.518407365E0,2.566732617E1
1.018800079E1,-9.126021949E0,2.524463086E1,3.628067212E0,2.708760853E1
1.019792479E1,-8.273027791E0,2.504059812E1,1.096723181E1,2.856142007E1
1.020784879E1,-4.291259873E0,1.785781175E1,6.945782343E0,1.963568803E1
1.021777279E1,-3.560781255E0,1.071982208E1,-1.138611932E0,1.135298136E1
1.022769579E1,-3.635995744E0,7.192127877E0,-2.869725149E0,8.554676551E0
1.023761979E1,-3.368128071E0,4.315329936E0,-1.121242778E0,5.587803193E0
1.024754379E1,-3.229075435E0,2.067994700E0,2.194461496E-1,3.840792478E0
1.025746679E1,-3.280283303E0,6.020117819E-1,7.019254947E-1,3.408133820E0
1.026739079E1,-3.080431904E0,-1.531225566E0,2.241330730E0,4.105761305E0
1.027731479E1,-2.174295911E0,-4.072116171E0,4.379132414E0,6.362899773E0
1.028723879E1,-4.403918177E-1,-5.558433366E0,4.818493953E0,7.369396882E0
1.029716179E1,1.339107694E0,-6.104728199E0,3.982074897E0,7.410656940E0
1.030708579E1,2.441219844E0,-6.014629038E0,3.068646841E0,7.179965893E0
1.031700979E1,2.981027484E0,-5.590778409E0,1.524903556E0,6.516798212E0
1.032693379E1,3.252049438E0,-5.503625075E0,-3.990555114E-1,6.405072975E0
1.033685679E1,3.481312332E0,-5.615723800E0,-2.077459588E0,6.926162551E0
1.034678079E1,3.689789836E0,-6.154951104E0,-3.249714645E0,7.877729203E0
1.035670479E1,3.957278025E0,-6.967862014E0,-3.678439513E0,8.817146231E0
1.036662879E1,4.251702290E0,-7.836178216E0,-3.620358535E0,9.622351964E0
1.037655179E1,4.524083429E0,-8.621449923E0,-3.160834628E0,1.023658171E1
1.038647579E1,4.919229784E0,-9.527608135E0,-2.314986352E0,1.096965361E1
1.039639979E1,5.343398502E0,-1.005839791E1,-1.701973618E0,1.151607530E1
1.040632279E1,5.550077695E0,-9.968111050E0,-1.619092260E0,1.152337017E1
1.041624679E1,5.658340062E0,-9.761849349E0,-1.694955790E0,1.140979360E1
1.042617079E1,5.709703174E0,-9.447387260E0,-1.503123847E0,1.114061119E1
1.043609479E1,5.598852829E0,-9.145607783E0,-1.039657747E0,1.077358728E1
1.044601779E1,5.313689969E0,-8.983873213E0,-5.019992512E-1,1.044975034E1
1.045594179E1,4.954148186E0,-8.841246759E0,-1.952397001E-1,1.013653526E1
1.046586579E1,4.603907863E0,-8.652457123E0,-1.930761572E-1,9.802972012E0
1.047578979E1,4.273899490E0,-8.246673220E0,-2.306592089E-1,9.291234564E0
1.048571279E1,3.975433337E0,-7.390915083E0,-1.009931818E-1,8.392847884E0
1.049563679E1,3.835355100E0,-6.218940108E0,9.025170051E-2,7.307072614E0
1.050556079E1,3.695735869E0,-5.149151074E0,-2.704202753E-1,6.343922093E0
1.051548479E1,3.406464463E0,-4.196337343E0,-5.972750987E-1,5.437829050E0
1.052540779E1,2.875495766E0,-2.782590526E0,7.001356620E-1,4.062200867E0
1.053533179E1,1.831668077E0,-4.340013957E-1,3.055457277E0,3.588758048E0
1.054525579E1,3.232698955E-1,2.001217743E0,4.045574489E0,4.525046832E0
1.055517979E1,-5.185253830E-1,3.329906284E0,1.695845736E0,3.772669770E0
1.056510279E1,-6.079950915E-1,3.626024487E0,-9.274993801E-1,3.791828940E0
1.057502679E1,-4.496742725E-1,3.689714699E0,-1.661198060E0,4.071336452E0
1.058495079E1,-8.517530867E-1,4.895733917E0,-9.168375671E-2,4.970120705E0
1.059487379E1,-1.174771406E0,7.248473986E0,1.373533469E0,7.470412116E0
1.060479779E1,-9.921701699E-1,9.856975361E0,5.067387119E-1,9.919735331E0
1.061472179E1,-1.991689998E0,1.187521435E1,-8.620813161E-2,1.204138600E1
1.062464579E1,-8.039791714E0,1.360391793E1,1.635229406E0,1.588643475E1
1.063456879E1,-1.923601452E1,1.672943362E1,5.554778271E0,2.609125841E1
1.064449279E1,-2.510919765E1,2.024433060E1,6.629553811E0,3.292803839E1
1.065441679E1,-1.862226854E1,1.946769640E1,4.929119180E0,2.738752097E1
1.066434079E1,-9.060295737E0,1.441747028E1,1.237205051E0,1.707287569E1
1.067426379E1,-4.354636089E0,1.013578113E1,-1.112810654E0,1.108761751E1
1.068418779E1,-2.542638045E0,8.194347072E0,-1.116636487E0,8.652121660E0
1.069411179E1,-2.106537207E0,7.302193526E0,2.459727743E-1,7.603948441E0
1.070403579E1,-2.846746761E0,6.574809839E0,1.894411333E0,7.410862692E0
1.071395879E1,-3.642589064E0,5.238815787E0,2.969937655E0,7.038051976E0
1.072388279E1,-3.318730793E0,2.976610497E0,3.231466069E0,5.506047319E0
1.073380679E1,-2.526278998E0,4.717790866E-1,3.042442544E0,3.982601878E0
1.074372979E1,-1.730471193E0,-1.646208138E0,2.655435221E0,3.571535803E0
1.075365379E1,-8.501784316E-1,-2.924000759E0,2.328493858E0,3.833336335E0
1.076357779E1,2.434973556E-1,-3.839953058E0,2.230809689E0,4.447588371E0
1.077350179E1,1.516551978E0,-4.845126266E0,2.059990008E0,5.478935779E0
1.078342479E1,2.569938110E0,-5.765786743E0,1.506703513E0,6.489917883E0
1.079334879E1,3.277743858E0,-6.531947410E0,6.087354952E-1,7.333518982E0
1.080327279E1,3.892147059E0,-7.429687386E0,-6.886084610E-1,8.415654757E0
1.081319679E1,4.427034852E0,-8.396548467E0,-1.885228865E0,9.677538510E0
1.082311979E1,4.872401188E0,-9.246265261E0,-2.649863994E0,1.078218409E1
1.083304379E1,5.367215381E0,-1.006874982E1,-2.793430095E0,1.174691345E1
1.084296779E1,5.908987393E0,-1.075263899E1,-2.532537857E0,1.252793380E1
1.085289179E1,6.418908452E0,-1.105681583E1,-2.154587286E0,1.296525389E1
1.086281479E1,6.766257620E0,-1.079857589E1,-1.793657375E0,1.286890400E1
1.087273879E1,6.806589375E0,-9.896861558E0,-1.494470553E0,1.210417159E1
1.088266279E1,6.607682886E0,-8.951959695E0,-1.312513388E0,1.120364882E1
1.089258679E1,6.329393427E0,-8.181666216E0,-1.124386752E0,1.040505304E1
1.090251054E1,5.915607026E0,-7.566008787E0,-9.002601260E-1,9.646209812E0
1.091243454E1,5.474217088E0,-7.158027501E0,-8.198423459E-1,9.048566290E0
1.092235854E1,5.104754920E0,-6.941577026E0,-8.281166676E-1,8.656199606E0
1.093228254E1,4.770404112E0,-6.858375240E0,-1.097804214E0,8.426104700E0
1.094220554E1,4.359426713E0,-6.862475308E0,-1.705715252E0,8.307083311E0
1.095212954E1,3.857104695E0,-6.747433094E0,-2.270614171E0,8.096962313E0
1.096205354E1,3.361874766E0,-6.551170716E0,-2.512114702E0,7.780151667E0
1.097197754E1,2.876992361E0,-6.356279510E0,-2.065129418E0,7.276271969E0
1.098190054E1,2.134186935E0,-6.191440068E0,-7.431707306E-1,6.590977676E0
1.099182454E1,1.124870975E0,-5.598088013E0,4.302775964E-1,5.726173497E0
1.100174854E1,1.206713283E-1,-4.313533087E0,-4.536065251E-1,4.338996213E0
1.101167154E1,-4.142793220E-1,-2.709545939E0,-2.024610699E0,3.407684703E0
1.102159554E1,-1.230980982E0,-1.440682601E0,-2.073285261E0,2.808806207E0
1.103151954E1,-3.531806255E0,1.991988498E-1,-3.709956005E-1,3.556820678E0
1.104144354E1,-6.259546098E0,3.075203324E0,3.854072622E0,7.968228699E0
1.105136654E1,-7.334657267E0,6.164489082E0,9.962429895E0,1.382201622E1
1.106129054E1,-6.067962661E0,9.348599136E0,9.976263238E0,1.495801808E1
1.107121454E1,-4.843264805E0,1.232075230E1,5.245913723E0,1.424000569E1
1.108113854E1,-7.652338833E0,1.607099621E1,3.688149399E0,1.817794418E1
1.109106154E1,-1.340170250E1,2.158103451E1,5.334048219E0,2.595763377E1
1.110098554E1,-1.629272029E1,2.520802262E1,5.947385473E0,3.059850540E1
1.111090954E1,-1.090183421E1,2.198165064E1,1.187208726E0,2.456526854E1
1.112083354E1,-4.652807250E0,1.664923087E1,-1.677034659E0,1.736830300E1
1.113075654E1,-1.553115202E0,1.291602458E1,-1.912552319E0,1.314890544E1
1.114068054E1,-3.828634018E-1,1.069275415E1,8.633472383E-2,1.069995464E1
1.115060454E1,-1.590837637E0,8.987983221E0,2.977773508E0,9.601132320E0
1.116052854E1,-3.675493101E0,8.141147350E0,3.757768688E0,9.690632344E0
1.117045154E1,-4.645666630E0,7.833234728E0,3.152330730E0,9.637373801E0
1.118037554E1,-4.567318618E0,6.770440133E0,2.410139261E0,8.515164721E0
1.119029954E1,-3.696039340E0,4.474274799E0,1.917373933E0,6.111968961E0
1.120022354E1,-2.228695774E0,1.736939968E0,1.199703349E0,3.069744848E0
1.121014654E1,-8.576616982E-1,-8.385334092E-1,5.585735478E-1,1.323150133E0
1.122007054E1,3.396074545E-1,-3.169029500E0,2.835091214E-1,3.199759150E0
1.122999454E1,1.166318671E0,-4.820578485E0,3.865804768E-1,4.974708096E0
1.123991854E1,1.946896525E0,-5.936041290E0,7.914796954E-1,6.297097140E0
1.124984154E1,2.676657105E0,-6.827082111E0,1.305679747E0,7.448378549E0
1.125976554E1,3.260307168E0,-7.463629303E0,1.708885027E0,8.321998152E0
1.126968954E1,3.909346644E0,-8.427068594E0,1.917840541E0,9.485599012E0
1.127961254E1,4.397153241E0,-9.357877498E0,1.629102693E0,1.046703413E1
1.128953654E1,4.767085817E0,-1.017788108E1,1.072706795E0,1.129004297E1
1.129946054E1,5.087786300E0,-1.087544923E1,3.473741649E-1,1.201172903E1
1.130938454E1,5.353004308E0,-1.119415757E1,-2.267947841E-1,1.241028826E1
1.131930754E1,5.608836365E0,-1.121866793E1,-5.808197182E-1,1.255607052E1
1.132923154E1,5.862085122E0,-1.052513786E1,-8.531205312E-1,1.207768122E1
1.133915554E1,6.010243042E0,-9.309035706E0,-1.009368074E0,1.112654444E1
1.134907954E1,5.710182645E0,-7.778380828E0,-1.126331025E0,9.714834828E0
1.135900254E1,5.252646791E0,-6.790780842E0,-1.307421048E0,8.684143744E0
1.136892654E1,4.926495534E0,-6.465875627E0,-1.584011744E0,8.281726817E0
1.137885054E1,4.637252195E0,-6.483122574E0,-1.887652536E0,8.191350214E0
1.138877454E1,4.342282384E0,-6.578101237E0,-2.218464609E0,8.188309802E0
1.139869754E1,4.066625343E0,-6.797201670E0,-2.548442869E0,8.320694278E0
1.140862154E1,3.842987763E0,-6.933787950E0,-2.739060345E0,8.387396607E0
1.141854554E1,3.697381568E0,-6.942354705E0,-2.791898124E0,8.346353362E0
1.142846954E1,3.666869335E0,-7.194982488E0,-2.548559813E0,8.468108457E0
1.143839254E1,3.669912811E0,-7.635095978E0,-2.013376590E0,8.707274885E0
1.144831654E1,3.402878950E0,-7.923596429E0,-2.040540268E0,8.861533169E0
1.145824054E1,2.646840398E0,-7.415934734E0,-2.548535255E0,8.276284433E0
1.146816454E1,1.687686239E0,-5.939969450E0,-2.717157844E0,6.746441184E0
1.147808754E1,1.110782986E0,-3.793268303E0,-2.465015965E0,4.658221439E0
1.148801154E1,8.273076323E-1,-1.793248655E0,-2.067198017E0,2.858930971E0
1.149793554E1,-1.841317445E-1,-1.741125405E-1,-3.246248415E-1,4.118263758E-1
1.150785954E1,-4.737886869E0,2.896522939E0,6.370674185E0,8.451207410E0
1.151778254E1,-8.163767889E0,5.092575755E0,6.132781971E0,1.141019056E1
1.152770654E1,-6.952028339E0,7.253066974E0,4.991856880E0,1.121857004E1
1.153763054E1,-1.071074135E1,1.408209504E1,1.496770146E1,2.317450038E1
1.154755454E1,-1.319942860E1,1.886087821E1,1.315690414E1,2.651531197E1
1.155747754E1,-1.323314248E1,2.033730133E1,1.732750145E0,2.432538403E1
1.156740154E1,-1.474823090E1,2.423240065E1,4.271110368E-1,2.837079448E1
1.157732554E1,-1.165212787E1,2.576225212E1,3.582801284E0,2.850091548E1
1.158724954E1,-4.294142843E0,1.986943520E1,3.054698016E0,2.055639312E1
1.159717254E1,-1.436757950E0,1.382734589E1,5.616291565E-1,1.391313031E1
1.160709654E1,-2.124698951E0,1.067851735E1,-9.760379943E-1,1.093150166E1
1.161702054E1,-3.399865588E0,8.851376476E0,-5.878167889E-1,9.500077900E0
1.162694454E1,-4.362198586E0,7.520033884E0,6.768491256E-1,8.719966219E0
1.163686754E1,-5.096747743E0,6.396370944E0,1.919723637E0,8.400936712E0
1.164679154E1,-5.349739223E0,5.256316504E0,2.525674103E0,7.913760333E0
1.165671554E1,-4.425471599E0,3.500350281E0,2.736346944E0,6.270952524E0
1.166663954E1,-2.253529192E0,9.267673087E-1,2.925111438E0,3.807041947E0
1.167656254E1,1.435713637E-1,-1.664757260E0,3.094821317E0,3.517093752E0
1.168648654E1,1.724959023E0,-3.608269417E0,3.028061317E0,5.016397827E0
1.169641054E1,2.798672124E0,-5.116929408E0,2.298887213E0,6.269004278E0
1.170633454E1,3.338255523E0,-6.171206948E0,1.238909660E0,7.124790683E0
1.171625754E1,3.730533527E0,-7.070787043E0,4.364775454E-1,8.006461294E0
1.172618154E1,4.195440965E0,-8.068482247E0,1.125127083E-1,9.094767164E0
1.173610554E1,4.352301588E0,-8.752754413E0,-1.189833833E-1,9.775857813E0
1.174602854E1,4.758169106E0,-9.518904555E0,-2.003894891E-1,1.064377156E1
1.175595254E1,5.220323968E0,-1.016775136E1,-5.351184654E-1,1.144208468E1
1.176587654E1,5.650008949E0,-1.053559268E1,-1.067847174E0,1.200256689E1
1.177580054E1,5.933857355E0,-1.071638275E1,-1.617004804E0,1.235581753E1
1.178572454E1,6.103552909E0,-1.066992428E1,-2.061743442E0,1.246400530E1
1.179564754E1,6.078973553E0,-1.033358542E1,-2.078308019E0,1.216783758E1
1.180557154E1,5.810678156E0,-9.431191058E0,-1.929657179E0,1.124432845E1
1.181549554E1,5.084085013E0,-8.045523739E0,-1.802962634E0,9.686539471E0
1.182541954E1,4.329328463E0,-7.000306460E0,-1.722608296E0,8.409206551E0
1.183534254E1,3.940319053E0,-6.558886117E0,-1.788719401E0,7.857774394E0
1.184526654E1,3.737026567E0,-6.398715093E0,-1.861412571E0,7.640273500E0
1.185519054E1,3.616315770E0,-6.400597311E0,-1.780773035E0,7.564161440E0
1.186511454E1,3.571552118E0,-6.548078123E0,-1.615826444E0,7.631789223E0
1.187503754E1,3.616699347E0,-6.850800757E0,-1.423246642E0,7.876523103E0
1.188496154E1,3.775774603E0,-7.309600194E0,-1.304069862E0,8.329905585E0
1.189488554E1,3.884019721E0,-7.648195496E0,-1.208913444E0,8.662677141E0
1.190480767E1,3.782324947E0,-7.590706256E0,-1.019456348E0,8.541902289E0
1.191473167E1,3.427469708E0,-6.924326570E0,-8.589840460E-1,7.773782904E0
1.192465567E1,2.877894879E0,-5.649397915E0,-8.205587760E-2,6.340718327E0
1.193457967E1,2.122926660E0,-3.674856339E0,1.422280536E0,4.475965666E0
1.194450367E1,1.559043402E0,-1.178454859E0,2.379289059E0,3.079023971E0
1.195442667E1,1.046054309E0,1.015181302E0,3.142981032E0,3.464556604E0
1.196435067E1,-1.294515073E-1,2.211129277E0,5.510808964E0,5.939264753E0
1.197427467E1,-2.052986944E0,3.519891091E0,9.649491591E0,1.047459196E1
1.198419767E1,-1.852291207E0,4.479501625E0,6.679213629E0,8.252806324E0
1.199412167E1,7.772674531E-2,6.131569258E0,-5.556480396E-1,6.157185051E0
1.200404567E1,-1.632958347E0,1.005435631E1,-8.126694202E-1,1.021846688E1
1.201396967E1,-1.020091443E1,2.209009544E1,1.227361556E1,2.725202031E1
1.202389367E1,-1.959177549E1,3.088725010E1,1.245384896E1,3.863881778E1
1.203381667E1,-1.656893924E1,2.837216151E1,1.316843251E0,3.288226532E1
1.204374067E1,-8.127708110E0,2.195030957E1,-2.126452823E0,2.350313874E1
1.205366467E1,-3.986528428E0,1.694998124E1,-1.802786048E0,1.750555085E1
1.206358867E1,-3.190755123E0,1.341438043E1,-1.632025132E-1,1.378960318E1
1.207351167E1,-4.490469248E0,1.093424415E1,2.106455053E0,1.200662993E1
1.208343567E1,-7.325192964E0,9.037043114E0,2.321373704E0,1.186235120E1
1.209335967E1,-8.664184299E0,6.712188417E0,1.472974288E0,1.105853590E1
1.210328267E1,-7.785759430E0,4.127087599E0,1.468723947E0,8.933535245E0
1.211320667E1,-5.784529992E0,9.129702187E-1,2.427864511E0,6.339465903E0
1.212313067E1,-3.874405437E0,-1.983992431E0,3.379814023E0,5.510933341E0
1.213305467E1,-2.206274041E0,-4.001816266E0,3.584124509E0,5.807592192E0
1.214297867E1,-6.955608004E-1,-5.216683491E0,2.560833703E0,5.852816479E0
1.215290167E1,5.475321043E-1,-5.759313875E0,1.086975170E0,5.886510234E0
1.216282567E1,1.561110393E0,-5.796595722E0,-5.897384763E-2,6.003421153E0
1.217274967E1,2.447158569E0,-5.893179445E0,-8.619975547E-1,6.439036327E0
1.218267367E1,3.227075395E0,-6.456028331E0,-1.082557672E0,7.298373006E0
1.219259667E1,4.044148353E0,-7.522164609E0,-1.162480924E0,8.619133263E0
1.220252067E1,4.700603560E0,-8.556889061E0,-1.335189475E0,9.853870060E0
1.221244467E1,5.107472706E0,-9.253829219E0,-1.561386089E0,1.068445409E1
1.222236767E1,5.374668242E0,-9.762400156E0,-1.834202553E0,1.129406103E1
1.223229167E1,5.655850317E0,-1.011330677E1,-1.946080254E0,1.174967425E1
1.224221567E1,5.880120274E0,-1.016850916E1,-1.983939806E0,1.191261559E1
1.225213967E1,5.969762768E0,-9.867123789E0,-1.985067734E0,1.170208072E1
1.226206367E1,5.893496364E0,-9.155654469E0,-2.069201565E0,1.108336155E1
1.227198667E1,5.544773101E0,-8.191860251E0,-2.196094331E0,1.013281370E1
1.228191067E1,4.974889430E0,-7.355037737E0,-2.063094733E0,9.116055333E0
1.229183467E1,4.465489942E0,-6.819639775E0,-1.833538309E0,8.355234875E0
1.230175867E1,4.048495173E0,-6.601053312E0,-1.570571041E0,7.901323395E0
1.231168167E1,3.829265517E0,-6.485149219E0,-1.365138329E0,7.654020999E0
1.232160567E1,3.811173647E0,-6.468351338E0,-1.351314926E0,7.628280647E0
1.233152967E1,3.853225653E0,-6.590324841E0,-1.434780421E0,7.767774733E0
1.234145267E1,3.991919269E0,-6.734975016E0,-1.477430012E0,7.967314940E0
1.235137667E1,4.030133162E0,-6.805654405E0,-1.431567815E0,8.037928315E0
1.236130067E1,3.909220051E0,-6.872979831E0,-1.189004260E0,7.995847941E0
1.237122467E1,3.693531761E0,-6.395155892E0,-9.423323044E-1,7.445010808E0
1.238114867E1,3.297864711E0,-5.359223991E0,-4.544733748E-1,6.309020486E0
1.239107167E1,2.771697748E0,-4.240260458E0,-6.708764872E-1,5.110009043E0
1.240099567E1,4.473211191E0,-3.515294595E0,1.046511853E0,5.784643593E0
1.241091967E1,1.664529219E0,-1.830187270E0,1.362375812E0,2.824236324E0
1.242084367E1,-1.154968348E-1,-5.685154223E-1,5.527429090E0,5.557789277E0
1.243076667E1,-3.193329944E0,1.215803949E0,9.346577754E0,9.951585355E0
1.244069067E1,-4.732987487E0,4.654252097E0,7.073768538E0,9.700589388E0
1.245061467E1,-2.970708610E0,8.032294414E0,1.319501103E0,8.665099328E0
1.246053867E1,-5.232072194E0,1.247961063E1,3.513637201E0,1.398073343E1
1.247046167E1,-1.082450361E1,1.981587705E1,1.093052299E1,2.508615543E1
1.248038567E1,-1.317625141E1,2.350585370E1,9.486045542E0,2.856788090E1
1.249030967E1,-1.207782154E1,2.242799200E1,1.628770571E0,2.552531081E1
1.250023367E1,-8.904436449E0,2.049077203E1,-5.663794345E-1,2.234908304E1
1.251015667E1,-4.379990493E0,1.615749875E1,-4.894245216E-1,1.674779445E1
1.252008067E1,-2.162270527E0,1.170874412E1,1.148928174E-1,1.190727941E1
1.253000467E1,-2.804721945E0,9.399738885E0,5.814775300E-1,9.826478128E0
1.253992867E1,-4.952489916E0,8.975725118E0,2.177447560E-1,1.025369253E1
1.254985167E1,-7.146499130E0,8.981857678E0,1.141288787E-2,1.147808117E1
1.255977567E1,-8.363246235E0,8.526853668E0,1.406404468E-1,1.194449249E1
1.256969967E1,-8.091612078E0,7.185779555E0,3.652720535E-1,1.082788241E1
1.257962367E1,-6.275195585E0,4.771284118E0,7.480325443E-1,7.918508980E0
1.258954667E1,-3.459561859E0,1.602747538E0,1.401019037E0,4.062046561E0
1.259947067E1,-4.609681696E-1,-1.373990428E0,1.739250057E0,2.263919634E0
1.260939467E1,1.552210053E0,-3.383450992E0,1.954878559E0,4.204598297E0
1.261931867E1,2.615079492E0,-4.671859233E0,1.724285278E0,5.624772810E0
1.262924167E1,3.224659910E0,-5.760648794E0,1.380114071E0,6.744495601E0
1.263916567E1,3.595627736E0,-6.497711962E0,1.247991702E0,7.530357418E0
1.264908967E1,3.750818102E0,-6.909460024E0,1.188775195E0,7.951255293E0
1.265901367E1,3.919859353E0,-7.436811633E0,9.325683314E-1,8.458200063E0
1.266893667E1,4.261594609E0,-8.288100159E0,4.817784101E-1,9.331982816E0
1.267886067E1,4.634127150E0,-8.947086040E0,-7.726583853E-3,1.007598843E1
1.268878467E1,5.189336064E0,-9.692258711E0,-3.623870373E-1,1.100001873E1
1.269870867E1,5.845055106E0,-1.024641863E1,-5.414036375E-1,1.180876293E1
1.270863167E1,6.355262679E0,-1.028411680E1,-6.155949370E-1,1.210501463E1
1.271855567E1,6.639015191E0,-1.004900143E1,-6.501379482E-1,1.206157667E1
1.272847967E1,6.584975808E0,-9.194394611E0,-7.749075899E-1,1.133575231E1
1.273840367E1,6.129119859E0,-7.857969620E0,-9.594643539E-1,1.001171157E1
1.274832667E1,5.415987591E0,-6.690892273E0,-1.193976878E0,8.690600772E0
1.275825067E1,4.784454094E0,-6.058390769E0,-1.536892687E0,7.871285716E0
1.276817467E1,4.313630735E0,-5.855801704E0,-1.877435696E0,7.511497088E0
1.277809867E1,4.000985669E0,-5.919155116E0,-2.091489397E0,7.444367771E0
1.278802167E1,3.863572593E0,-6.167888653E0,-2.184585695E0,7.598845852E0
1.279794567E1,3.880880059E0,-6.526103117E0,-2.271687720E0,7.925390655E0
1.280786967E1,3.980761612E0,-6.991052656E0,-2.425013993E0,8.402498029E0
1.281779367E1,3.977222877E0,-7.534230924E0,-2.669600685E0,8.928029191E0
1.282771667E1,3.794278702E0,-7.966392785E0,-2.928962122E0,9.297246043E0
1.283764067E1,3.535184191E0,-8.426458145E0,-3.150690878E0,9.665897638E0
1.284756467E1,3.110307960E0,-8.767326259E0,-3.060781751E0,9.793283937E0
1.285748867E1,2.440596531E0,-8.876128324E0,-2.457383302E0,9.527901036E0
1.286741167E1,1.300441811E0,-8.316636910E0,-1.309083703E0,8.518878948E0
1.287733567E1,2.160049170E-2,-5.496425983E0,-3.007027128E-1,5.504687756E0
1.288725967E1,-1.476479840E0,-1.172669624E0,5.224563199E0,5.554386320E0
1.289718367E1,-4.547341021E0,2.631623604E0,1.267536254E1,1.372109940E1
1.290710654E1,-6.691703281E0,6.823524081E0,1.439326514E1,1.727731042E1
1.291703054E1,-6.040602955E0,1.144721454E1,5.995509228E0,1.426442202E1
1.292695454E1,-6.411388932E0,1.468833202E1,4.075348511E-1,1.603181494E1
1.293687854E1,-9.445099829E0,2.052231893E1,3.617467672E0,2.287928228E1
1.294680154E1,-1.235631507E1,2.788774542E1,1.066368413E1,3.231283067E1
1.295672554E1,-1.145311438E1,2.666051075E1,6.848391704E0,2.981370710E1
1.296664954E1,-6.404928344E0,1.861311999E1,-7.993421540E-1,1.970051499E1
1.297657354E1,-2.984370629E0,1.257285383E1,-2.506344378E0,1.316301196E1
1.298649754E1,-2.117796605E0,8.843267557E0,-2.788858742E-1,9.097594236E0
1.299642054E1,-2.847000530E0,6.876748361E0,3.408958300E0,8.186334756E0
1.300634454E1,-5.187112368E0,7.128884978E0,3.809210152E0,9.604020914E0
1.301626854E1,-7.767051848E0,8.299745473E0,2.410092191E0,1.161987150E1
1.302619254E1,-9.240975870E0,8.528199112E0,2.151630057E0,1.275755960E1
1.303611554E1,-9.189779989E0,7.045238804E0,2.651925137E0,1.187940036E1
1.304603954E1,-7.627227380E0,4.128505549E0,3.293401239E0,9.277157285E0
1.305596354E1,-5.003232638E0,9.902078444E-1,3.515865868E0,6.194688144E0
1.306588754E1,-2.567325867E0,-1.464276701E0,3.136291525E0,4.309477102E0
1.307581054E1,-9.886828905E-1,-2.758833289E0,2.298077081E0,3.724219817E0
1.308573454E1,2.091268373E-1,-3.724163570E0,1.832932830E0,4.156052344E0
1.309565854E1,1.148736970E0,-4.401357096E0,1.410302222E0,4.762404149E0
1.310558254E1,2.030819272E0,-4.902478681E0,9.139899731E-1,5.384598574E0
1.311550554E1,2.958326839E0,-5.591477151E0,1.050637941E-1,6.326717381E0
1.312542954E1,3.801322843E0,-6.279767523E0,-6.883226784E-1,7.372877567E0
1.313535354E1,4.563114178E0,-6.981002462E0,-1.088347073E0,8.410761305E0
1.314527754E1,5.214059261E0,-7.623945923E0,-1.423348530E0,9.345420614E0
1.315520054E1,5.774604928E0,-8.259197956E0,-1.728533864E0,1.022488349E1
1.316512454E1,6.145827109E0,-8.680741274E0,-2.085201886E0,1.083856664E1
1.317504854E1,6.457983640E0,-9.075010255E0,-2.348747005E0,1.138323224E1
1.318497254E1,6.658539628E0,-9.186530691E0,-2.542737156E0,1.162729583E1
1.319489554E1,6.718123341E0,-9.039127647E0,-2.621878635E0,1.156344488E1
1.320481954E1,6.697031264E0,-8.626330009E0,-2.554601741E0,1.121560463E1
1.321474354E1,6.566585730E0,-8.096900300E0,-2.482522529E0,1.071647147E1
1.322466754E1,6.338864747E0,-7.535277575E0,-2.337177120E0,1.012047486E1
1.323459054E1,6.056972820E0,-7.136968169E0,-2.121875769E0,9.598207705E0
1.324451454E1,5.791201081E0,-7.008958000E0,-1.893659527E0,9.287058124E0
1.325443854E1,5.549469000E0,-7.177099364E0,-1.671954159E0,9.225117461E0
1.326436254E1,5.310514930E0,-7.529392353E0,-1.565290859E0,9.345771959E0
1.327428554E1,5.073957635E0,-7.866033515E0,-1.502954278E0,9.480421979E0
1.328420954E1,4.892208631E0,-8.361297943E0,-1.024314799E0,9.741366916E0
1.329413354E1,4.008131551E0,-8.363169052E0,-3.227497856E-1,9.279648838E0
1.330405754E1,2.926550438E0,-7.669023278E0,1.389447543E-1,8.209623691E0
1.331398054E1,1.884973927E0,-6.832474414E0,9.414347568E-1,7.149974316E0
1.332390454E1,6.660873252E-1,-6.213074766E0,2.543314276E0,6.746437422E0
1.333382854E1,-4.213100141E-1,-5.170833135E0,2.852669114E0,5.920535323E0
1.334375254E1,5.182679594E-2,-3.630778273E0,-3.961722493E-1,3.652696174E0
1.335367654E1,7.719122806E-1,-1.879778091E0,-2.783671677E0,3.446482590E0
1.336359954E1,-9.763060892E-1,-4.465273011E-1,-1.839418854E0,2.129793871E0
1.337352354E1,-4.864469440E0,2.026370711E0,1.763409144E0,5.556874391E0
1.338344754E1,-5.678943311E0,1.017291329E1,3.133814059E0,1.206479807E1
1.339337154E1,-3.665613061E0,1.828806742E1,1.596478738E0,1.872001265E1
1.340329454E1,-4.697808299E0,2.457472706E1,4.123309421E0,2.535721384E1
1.341321854E1,-9.445199232E0,3.147527417E1,1.038298737E1,3.446318470E1
1.342314254E1,-1.510941692E1,2.665910274E1,5.112275609E0,3.106666381E1
1.343306654E1,-1.336178356E1,1.593599218E1,-3.590763438E-1,2.079956833E1
1.344298954E1,-1.041754442E1,1.115737975E1,-2.257589498E-1,1.526641155E1
1.345291354E1,-1.039010694E1,7.495687832E0,2.452844986E0,1.304438986E1
1.346283754E1,-1.010507389E1,3.724830737E0,6.382534093E0,1.251893062E1
1.347276154E1,-8.978434133E0,2.150466169E0,7.925656403E0,1.216769549E1
1.348268454E1,-8.054153645E0,4.211679268E0,5.821865634E0,1.079359776E1
1.349260854E1,-7.310421728E0,7.418789930E0,2.401082802E0,1.068858777E1
1.350253254E1,-5.446697168E0,8.357114260E0,-5.350915682E-1,9.989704289E0
1.351245654E1,-2.540968958E0,7.647943481E0,-2.321003721E0,8.386573854E0
1.352237954E1,3.261553502E-1,5.921113349E0,-2.652776492E0,6.496397749E0
1.353230354E1,2.291576439E0,3.695053791E0,-1.258152409E0,4.526333238E0
1.354222754E1,3.710990962E0,1.288896484E0,4.102418196E-1,3.949810935E0
1.355215154E1,4.349910954E0,-8.904034746E-1,1.395482747E0,4.654236323E0
1.356207454E1,4.047426302E0,-2.639288135E0,1.607346958E0,5.092255470E0
1.357199854E1,3.579667761E0,-4.614982781E0,1.639395401E0,6.066276010E0
1.358192254E1,3.573405393E0,-6.702605415E0,1.438844090E0,7.730744969E0
1.359184654E1,3.997320342E0,-8.578824890E0,7.909913068E-1,9.497392993E0
1.360176954E1,4.537034719E0,-1.006928659E1,-1.736096799E-2,1.104425271E1
1.361169354E1,5.062833892E0,-1.095005970E1,-7.403990042E-1,1.208653322E1
1.362161754E1,5.930337916E0,-1.168641828E1,-1.648884408E0,1.320833448E1
1.363154154E1,6.738243025E0,-1.167175697E1,-2.777579463E0,1.376040615E1
1.364146554E1,7.344383526E0,-1.087065334E1,-3.705301622E0,1.363232679E1
1.365138854E1,7.276962790E0,-9.090091394E0,-3.918570626E0,1.228572931E1
1.366131254E1,6.589909689E0,-7.194252756E0,-3.510582324E0,1.036862434E1
1.367123654E1,5.530478413E0,-5.739362590E0,-2.502860314E0,8.354087872E0
1.368116054E1,4.565682567E0,-4.982576180E0,-1.525207611E0,6.928043082E0
1.369108354E1,4.149490329E0,-4.953720755E0,-8.207637940E-1,6.513929115E0
1.370100754E1,4.142112897E0,-5.340669606E0,-2.523670701E-1,6.763397093E0
1.371093154E1,4.278150708E0,-5.953312211E0,4.047213902E-1,7.342227126E0
1.372085554E1,4.356847506E0,-6.933460506E0,8.527191930E-1,8.232990028E0
1.373077854E1,4.340744274E0,-8.052010056E0,7.987735122E-1,9.182318112E0
1.374070254E1,4.223583614E0,-8.718837638E0,3.625829190E-1,9.694753978E0
1.375062654E1,4.254249337E0,-9.046733705E0,-4.019229859E-3,9.997101795E0
1.376055054E1,4.324917031E0,-9.003117569E0,-1.324275939E-1,9.988922382E0
1.377047354E1,4.189705431E0,-8.333807843E0,-1.475829922E-1,9.328867322E0
1.378039754E1,3.805306551E0,-7.158925048E0,-3.177260041E-2,8.107501174E0
1.379032154E1,3.631312124E0,-5.812092597E0,-8.428176641E-3,6.853241506E0
1.380024554E1,4.012871889E0,-4.422602955E0,7.299357042E-2,5.972259686E0
1.381016854E1,2.917957662E0,-3.146930534E0,-2.780035293E-1,4.300573760E0
1.382009254E1,5.409905317E-1,-2.391546285E0,-1.219635045E0,2.738553274E0
1.383001654E1,-2.755622583E0,-4.124321866E-1,1.473203937E0,3.151806778E0
1.383994054E1,-5.034139266E0,1.739807442E0,4.925890347E0,7.254921350E0
1.384986454E1,-4.493126807E0,3.120686476E0,2.725162683E0,6.111741506E0
1.385978754E1,-4.455098563E0,6.032725001E0,7.019515148E-1,7.532224776E0
1.386971154E1,-7.590006344E0,1.033624941E1,-9.937664598E-1,1.286210791E1
1.387963554E1,-1.788368919E1,2.053011678E1,9.815808624E0,2.894239335E1
1.388955954E1,-2.263666509E1,2.660782032E1,1.352717205E1,3.746170167E1
1.389948254E1,-1.431926746E1,2.414173139E1,4.767935710E0,2.847099973E1
1.390940696E1,-5.614998745E0,2.090112963E1,8.958951795E-1,2.166074927E1
1.391933096E1,-1.291665725E0,1.723673454E1,-1.053755676E0,1.731715390E1
1.392925496E1,-5.458644783E-1,1.359372389E1,-1.429596572E0,1.367958492E1
1.393917796E1,-2.360396998E0,1.039632604E1,-1.213406006E0,1.072974479E1
1.394910196E1,-4.902292154E0,8.110519050E0,-1.757675949E-1,9.478601261E0
1.395902596E1,-6.161820413E0,6.351963095E0,1.528013690E0,8.980550751E0
1.396894996E1,-6.333129213E0,4.705481308E0,3.684488457E0,8.707785893E0
1.397887296E1,-6.312868611E0,3.376790428E0,5.359066701E0,8.942852990E0
1.398879696E1,-5.992475107E0,2.417149488E0,6.153336688E0,8.922775462E0
1.399872096E1,-4.399536858E0,1.086872259E0,6.119570771E0,7.614877694E0
1.400864496E1,-1.797259260E0,-8.925301069E-1,4.549107465E0,4.972034751E0
1.401856796E1,4.928799337E-1,-2.718774599E0,2.651530742E0,3.829527546E0
1.402849196E1,1.781418568E0,-3.393419325E0,1.352461419E0,4.064221785E0
1.403841596E1,2.786384200E0,-3.795948667E0,6.673677193E-1,4.755895590E0
1.404833996E1,3.478633722E0,-4.467394381E0,5.263979280E-1,5.686440003E0
1.405826396E1,3.877150705E0,-5.489744369E0,2.345673417E-1,6.724924733E0
1.406818696E1,4.219943138E0,-6.661985393E0,-3.898585720E-1,7.895692444E0
1.407811096E1,4.449776135E0,-7.702048936E0,-1.046781410E0,8.956439962E0
1.408803496E1,4.790953275E0,-8.736818411E0,-1.679052094E0,1.010467442E1
1.409795896E1,5.099134576E0,-9.371985075E0,-2.244093540E0,1.090280851E1
1.410788196E1,5.397767082E0,-9.838729709E0,-2.724853365E0,1.154821708E1
1.411780596E1,5.781268415E0,-1.012279095E1,-3.099643516E0,1.206241067E1
1.412772996E1,6.217774174E0,-1.013622786E1,-3.120101754E0,1.229385480E1
1.413765396E1,6.323033411E0,-9.642616435E0,-3.515374117E0,1.205481889E1
1.414757696E1,5.931875149E0,-8.620804975E0,-3.996247378E0,1.120158088E1
1.415750096E1,5.322019912E0,-7.662069769E0,-3.648900549E0,1.001726930E1
1.416742496E1,4.789315177E0,-7.017318934E0,-2.752353405E0,8.930607714E0
1.417734896E1,4.522503219E0,-6.649867623E0,-1.844598902E0,8.250837526E0
1.418727196E1,4.489965510E0,-6.447023619E0,-1.006685737E0,7.920689364E0
1.419719596E1,4.628175269E0,-6.388071991E0,-3.644101739E-1,7.896851579E0
1.420711996E1,4.785338193E0,-6.603655908E0,-1.329358631E-1,8.156310742E0
1.421704396E1,4.893330712E0,-6.954991123E0,-2.031556606E-1,8.506342293E0
1.422696796E1,5.382187761E0,-7.164995627E0,-1.430012602E-1,8.962452611E0
1.423689096E1,6.530254641E0,-6.983041386E0,8.106269878E-1,9.595009577E0
1.424681496E1,5.527172982E0,-5.810327908E0,1.106947943E0,8.095361963E0
1.425673896E1,4.417981900E0,-4.216683315E0,1.635930341E0,6.322598384E0
1.426666296E1,2.801715599E0,-2.160758438E0,3.513609720E0,4.986375496E0
1.427658596E1,4.704991311E-1,-7.353926182E-2,5.326587757E0,5.347832700E0
1.428650996E1,-1.382548413E0,-1.451489425E-1,2.663284523E0,3.004262435E0
1.429643396E1,-1.437984695E0,-1.286855221E0,-1.201630006E0,2.273259997E0
1.430635796E1,-1.657529224E0,-6.226033366E-1,-1.714528760E0,2.464679880E0
1.431628096E1,-5.493742111E0,1.776843122E0,6.729879168E-1,5.813027318E0
1.432620496E1,-8.672270413E0,4.931797789E0,-4.874741828E-1,9.988420027E0
1.433612896E1,-1.508777871E1,1.305932814E1,1.096478533E1,2.276869859E1
1.434605296E1,-1.818340928E1,2.172590044E1,2.099687895E1,3.526357964E1
1.435597596E1,-1.508286705E1,1.841681960E1,6.749879569E0,2.474334248E1
1.436589996E1,-1.172076015E1,1.488092761E1,-2.200503716E0,1.906988310E1
1.437582396E1,-9.754330999E0,1.397721353E1,-7.241788280E-1,1.705971589E1
1.438574796E1,-6.218958820E0,1.365585173E1,3.203169054E0,1.534333820E1
1.439567096E1,-3.295854146E0,1.345184354E1,1.699884408E0,1.395365029E1
1.440559496E1,-2.623564972E0,1.307331001E1,-8.719087315E-1,1.336243812E1
1.441551896E1,-2.472790131E0,1.247397742E1,-1.295856717E0,1.278256814E1
1.442544296E1,-1.832909149E0,1.140973739E1,3.379594168E-1,1.156096362E1
1.443536696E1,-1.306495433E0,9.865890026E0,1.837298946E0,1.012019682E1
1.444528996E1,-1.521567720E0,7.869733048E0,1.998292089E0,8.260813389E0
1.445521396E1,-2.176792672E0,5.416409760E0,1.903001769E0,6.139815694E0
1.446513796E1,-2.453619157E0,2.558883657E0,1.616527671E0,3.896318037E0
1.447506196E1,-1.702640786E0,-5.994115251E-1,1.512616509E0,2.355055950E0
1.448498496E1,-8.278294963E-1,-3.376469416E0,1.967103918E0,3.994414252E0
1.449490896E1,2.286419195E-1,-5.771579579E0,1.692204675E0,6.018884002E0
1.450483296E1,1.301159849E0,-7.060659081E0,1.220441815E0,7.282540891E0
1.451475696E1,2.492810705E0,-7.858954875E0,8.068268824E-1,8.284216714E0
1.452467996E1,3.598637883E0,-8.521252620E0,2.175327945E-1,9.252527295E0
1.453460396E1,4.425814245E0,-9.007667288E0,-4.898762190E-1,1.004817796E1
1.454452796E1,5.258855365E0,-9.643329796E0,-1.153562093E0,1.104445901E1
1.455445196E1,5.810640149E0,-1.007150152E1,-2.712639408E0,1.193972756E1
1.456437596E1,5.868625817E0,-9.950590453E0,-4.595052547E0,1.243259938E1
1.457429896E1,5.763612163E0,-9.865908737E0,-5.223489066E0,1.256344771E1
1.458422296E1,5.902706314E0,-1.019674654E1,-4.647816067E0,1.266561392E1
1.459414696E1,6.045557885E0,-1.019282656E1,-3.824975415E0,1.245282781E1
1.460407096E1,6.106298177E0,-9.568983033E0,-2.757818213E0,1.168151852E1
1.461399396E1,6.023805658E0,-8.380411322E0,-1.310765070E0,1.040363560E1
1.462391796E1,5.552441724E0,-7.116000638E0,-1.480639257E-1,9.027125628E0
1.463384196E1,4.883570539E0,-6.460278672E0,6.208070719E-1,8.122183398E0
1.464376596E1,5.085197738E0,-6.474820113E0,1.886198187E0,8.446317252E0
1.465368896E1,4.721985366E0,-6.848344926E0,3.178717167E0,8.905123068E0
1.466361296E1,3.067577678E0,-7.363789265E0,1.906949371E0,8.201943736E0
1.467353696E1,3.174852158E0,-7.782793137E0,5.571933125E-1,8.423895751E0
1.468346096E1,3.184504741E0,-8.022055939E0,-4.987411827E-1,8.645414664E0
1.469338496E1,2.998936628E0,-8.378606286E0,-2.158967435E0,9.157281506E0
1.470330796E1,2.570640361E0,-8.375296762E0,-3.910864289E0,9.594198622E0
1.471323196E1,1.685115511E0,-7.789753663E0,-4.357273183E0,9.083265162E0
1.472315596E1,5.018293896E-1,-6.776521237E0,-4.156631826E0,7.965592316E0
1.473307996E1,-7.623909670E-1,-5.173449764E0,-3.172810310E0,6.116579739E0
1.474300296E1,-2.229417906E0,-2.670497063E0,-4.796991402E-1,3.511690480E0
1.475292696E1,-2.938361228E0,-5.953401089E-2,2.301578979E0,3.732931395E0
1.476285096E1,-3.855868009E0,3.361866580E0,8.664561444E0,1.006203210E1
1.477277496E1,-5.820894996E0,9.115892233E0,1.650609337E1,1.973406770E1
1.478269796E1,-6.472052625E0,1.431912245E1,1.736439914E1,2.341894725E1
1.479262196E1,-6.202639825E0,1.355751910E1,4.423577685E0,1.555143416E1
1.480254596E1,-6.689799428E0,1.215079245E1,-4.904118825E0,1.471208874E1
1.481246996E1,-8.108267287E0,1.500005176E1,-3.971138849E0,1.750758393E1
1.482239396E1,-7.848756162E0,1.892656934E1,3.688760433E0,2.081886053E1
1.483231696E1,-4.340270357E0,1.749518030E1,9.048544587E0,2.016917053E1
1.484224096E1,-2.018531349E0,1.507999957E1,5.974224778E0,1.634540356E1
1.485216496E1,-1.755533529E0,1.412553751E1,3.134534729E0,1.457525355E1
1.486208896E1,-2.821837330E0,1.247284306E1,2.516170916E0,1.303325347E1
1.487201196E1,-4.991187959E0,1.054979791E1,1.614572947E0,1.178206429E1
1.488193596E1,-7.262999055E0,9.098262293E0,7.954826993E-1,1.166886133E1
1.489185996E1,-8.815882123E0,7.964231654E0,7.108620867E-1,1.190185231E1
1.490178396E1,-9.304745019E0,6.769037386E0,9.105032784E-1,1.154240717E1
1.491170692E1,-8.283287900E0,4.989531443E0,1.521903350E0,9.788997510E0
1.492163092E1,-5.880053616E0,2.683101906E0,2.076274357E0,6.788592017E0
1.493155492E1,-2.915412369E0,4.195535105E-1,2.392670997E0,3.794802884E0
1.494147892E1,-5.565473413E-1,-1.040133711E0,2.245558560E0,2.536563881E0
1.495140292E1,8.821279103E-1,-1.423583003E0,1.447514195E0,2.213602395E0
1.496132592E1,1.955296050E0,-1.583440032E0,4.825844488E-1,2.561904122E0
1.497124992E1,2.961574382E0,-2.166326156E0,-7.767324328E-2,3.670139639E0
1.498117392E1,3.762989666E0,-3.384351463E0,2.860579227E-1,5.069098065E0
1.499109792E1,4.334588910E0,-4.879821305E0,4.642547433E-1,6.543458524E0
1.500102092E1,4.681354526E0,-6.301877600E0,1.064900762E-1,7.851119769E0
1.501094492E1,5.136348011E0,-7.840720333E0,-5.301595880E-1,9.388292466E0
1.502086892E1,5.450531187E0,-8.848920060E0,-1.390616986E0,1.048548960E1
1.503079292E1,6.052376908E0,-9.596573120E0,-2.107789680E0,1.153985525E1
1.504071692E1,6.348781625E0,-9.713433233E0,-2.533309690E0,1.187751958E1
1.505063992E1,6.500406944E0,-9.734317149E0,-2.500242516E0,1.196927038E1
1.506056392E1,6.679803028E0,-9.875875901E0,-2.179799311E0,1.212040504E1
1.507048792E1,6.634651998E0,-9.525160491E0,-1.836613360E0,1.175246519E1
1.508041192E1,6.048903662E0,-8.437318178E0,-1.300208507E0,1.046270117E1
1.509033492E1,4.824115174E0,-7.074789462E0,-5.578132635E-1,8.581135634E0
1.510025892E1,4.229690446E0,-6.528177710E0,7.459643841E-2,7.779007013E0
1.511018292E1,3.761067102E0,-6.896358168E0,-1.662714243E-2,7.855294914E0
1.512010692E1,3.048275142E0,-7.667366177E0,-1.372732108E0,8.364501113E0
1.513003092E1,2.852977554E0,-8.211068940E0,-2.516500114E0,9.049525230E0
1.513995392E1,3.212569915E0,-8.632266687E0,-3.040066820E0,9.699414410E0
1.514987792E1,3.455887761E0,-8.634588616E0,-3.213161945E0,9.839902971E0
1.515980192E1,3.587926369E0,-8.463432428E0,-3.259919790E0,9.753459957E0
1.516972592E1,3.521080707E0,-8.261946732E0,-3.204024501E0,9.535383902E0
1.517964892E1,3.148317786E0,-8.000220097E0,-3.070688104E0,9.129323738E0
1.518957292E1,2.482744723E0,-7.487529797E0,-3.143789409E0,8.491792253E0
1.519949692E1,1.711935812E0,-6.732823825E0,-2.967860139E0,7.554457935E0
1.520942092E1,8.818779418E-1,-5.371658095E0,-2.218395027E0,5.878239183E0
1.521934392E1,4.199441046E-1,-2.474422381E0,-1.318440126E0,2.835031487E0
1.522926792E1,-2.518729073E-1,3.218979925E-1,3.926525179E-1,5.667753336E-1
1.523919192E1,-1.887393504E0,2.428138745E0,3.327931679E0,4.531361966E0
1.524911592E1,-4.241534859E0,6.695021576E0,1.056812659E1,1.320981573E1
1.525903992E1,-7.260451423E0,1.278841495E1,1.584399092E1,2.161688599E1
1.526896292E1,-8.737512476E0,1.675573907E1,1.278882425E1,2.281782071E1
1.527888692E1,-9.106203396E0,1.794380325E1,6.765236111E0,2.122902341E1
1.528881092E1,-1.016060256E1,1.873424740E1,3.136868645E0,2.154181550E1
1.529873492E1,-1.155193232E1,1.976924901E1,8.771726874E-1,2.291374650E1
1.530865792E1,-1.078951621E1,1.922616547E1,6.641466343E-1,2.205674929E1
1.531858192E1,-7.444471486E0,1.590768464E1,1.691748300E0,1.764473289E1
1.532850592E1,-4.930190974E0,1.270903549E1,1.589156855E0,1.372413151E1
1.533842992E1,-4.349350499E0,1.059862801E1,2.270473838E0,1.167916165E1
1.534835392E1,-5.239271870E0,9.176131418E0,2.941467562E0,1.096829927E1
1.535827692E1,-6.110409354E0,8.141613373E0,2.768217193E0,1.054921785E1
1.536820092E1,-5.651448534E0,7.664437307E0,1.906143771E0,9.711634972E0
1.537812492E1,-4.165830081E0,6.551188842E0,9.527751392E-1,7.821764249E0
1.538804892E1,-2.381669753E0,4.222536963E0,3.074790511E-1,4.857644757E0
1.539797192E1,-4.403152192E-1,1.246385472E0,5.231971622E-1,1.421650276E0
1.540789592E1,9.604028320E-1,-1.671058804E0,1.018433816E0,2.179912513E0
1.541781992E1,1.346402973E0,-3.760183588E0,1.512635951E0,4.270813634E0
1.542774392E1,1.153177346E0,-4.932256211E0,2.171643614E0,5.511170956E0
1.543766792E1,9.199172956E-1,-5.598175136E0,2.577738296E0,6.231416164E0
1.544759092E1,1.215370086E0,-6.115535608E0,2.285424584E0,6.640788036E0
1.545751492E1,1.931010810E0,-6.683720663E0,1.812963712E0,7.189420148E0
1.546743892E1,2.686521943E0,-7.452460536E0,1.092377413E0,7.996865424E0
1.547736292E1,3.262915319E0,-8.093609487E0,1.294696337E-1,8.727536496E0
1.548728592E1,3.933721932E0,-8.892435624E0,-7.666692285E-1,9.753838284E0
1.549720992E1,4.732295469E0,-9.719372835E0,-1.325602965E0,1.089119148E1
1.550713392E1,5.491854630E0,-1.018686474E1,-1.831584901E0,1.171696991E1
1.551705792E1,6.055709821E0,-1.022533474E1,-2.188587676E0,1.208383251E1
1.552698192E1,6.443339288E0,-9.894705105E0,-2.462433835E0,1.206173249E1
1.553690492E1,6.531365612E0,-9.293767456E0,-2.505011505E0,1.163219381E1
1.554682892E1,6.267529886E0,-8.476265312E0,-2.274761747E0,1.078441215E1
1.555675292E1,5.850717550E0,-7.669373526E0,-2.060904513E0,9.863950200E0
1.556667692E1,5.371226571E0,-7.041407123E0,-1.985402194E0,9.075974384E0
1.557660092E1,4.915125039E0,-6.614819412E0,-2.100837926E0,8.504575827E0
1.558652392E1,4.583011376E0,-6.346526354E0,-2.373021137E0,8.180074532E0
1.559644792E1,4.354340805E0,-6.280348152E0,-2.678245794E0,8.097904500E0
1.560637192E1,4.198556069E0,-6.455616687E0,-2.910956790E0,8.232650200E0
1.561629592E1,4.170568664E0,-6.799497287E0,-2.912278846E0,8.491653220E0
1.562621892E1,4.207182759E0,-7.123131902E0,-2.701610683E0,8.702763650E0
1.563614292E1,4.133256412E0,-7.318918317E0,-2.534118360E0,8.779073400E0
1.564606692E1,3.871265190E0,-7.418197607E0,-2.548379426E0,8.747033074E0
1.565599092E1,3.270103886E0,-7.149342631E0,-2.337615076E0,8.201897568E0
1.566591492E1,2.247457735E0,-6.490331606E0,-1.167119447E0,6.966895897E0
1.567583792E1,8.450670880E-1,-4.673142697E0,2.123895836E-1,4.753683875E0
1.568576192E1,-4.581381172E-2,-1.348708237E0,1.351830358E0,1.910119926E0
1.569568592E1,-1.038524557E0,1.423838527E0,4.851651466E0,5.161818609E0
1.570560992E1,-3.455019449E0,2.775374478E0,7.525661829E0,8.733581674E0
1.571553292E1,-5.627259772E0,6.393697597E0,1.013207867E1,1.323648139E1
1.572545692E1,-5.399265139E0,9.726859025E0,5.090683011E0,1.223433300E1
1.573538092E1,-7.601524190E0,1.457859615E1,4.439856918E0,1.703029551E1
1.574530492E1,-1.158403704E1,2.094891307E1,7.317253615E0,2.503176130E1
1.575522892E1,-1.372648142E1,2.307327201E1,6.111588737E0,2.753440920E1
1.576515192E1,-1.279781025E1,2.145322373E1,3.647853897E0,2.524542718E1
1.577507592E1,-8.065060456E0,1.649810607E1,2.557001146E0,1.854106143E1
1.578499992E1,-4.164469433E0,1.234753957E1,1.771806038E0,1.315081122E1
1.579492392E1,-3.478445734E0,1.082518540E1,2.271854658E0,1.159506564E1
1.580484792E1,-3.914354199E0,1.027274514E1,3.355221511E0,1.149386675E1
1.581477092E1,-4.557105579E0,1.029582878E1,3.386479557E0,1.175753143E1
1.582469492E1,-5.089177938E0,1.043566845E1,2.418079196E0,1.185959590E1
1.583461892E1,-4.947280632E0,9.540881315E0,1.331756867E0,1.082947728E1
1.584454292E1,-4.139807340E0,7.215296300E0,1.056494805E0,8.385385309E0
1.585446592E1,-3.108578646E0,4.057296402E0,1.731373419E0,5.396533073E0
1.586438992E1,-2.415447364E0,1.154890580E0,2.600987410E0,3.732732743E0
1.587431392E1,-2.442260941E0,-8.347134233E-1,2.559081877E0,3.634595584E0
1.588423792E1,-1.970315793E0,-2.785502440E0,2.931156874E0,4.498093906E0
1.589416192E1,-1.074882544E0,-4.650021052E0,3.337702376E0,5.823944146E0
1.590408429E1,-1.759029579E-1,-5.811281589E0,2.689531505E0,6.405896914E0
1.591400829E1,7.304680932E-1,-6.403955367E0,1.612889826E0,6.644218658E0
1.592393229E1,1.781060718E0,-6.894308134E0,3.354731807E-1,7.128548533E0
1.593385629E1,2.796106073E0,-7.527637603E0,-6.249334520E-1,8.054444666E0
1.594378029E1,3.747715862E0,-8.662225481E0,-1.303321565E0,9.527757951E0
1.595370329E1,4.632863567E0,-9.711805953E0,-1.822271748E0,1.091344465E1
1.596362729E1,5.310885059E0,-1.065837603E1,-2.461771930E0,1.216004937E1
1.597355129E1,5.675113385E0,-1.118467806E1,-3.189785947E0,1.294135502E1
1.598347529E1,6.013711610E0,-1.132334595E1,-3.636588652E0,1.332695268E1
1.599339929E1,6.208335013E0,-1.083423455E1,-3.818103767E0,1.305764061E1
1.600332229E1,6.273488783E0,-9.887074488E0,-3.642568014E0,1.226291993E1
1.601324629E1,6.166636764E0,-8.900774923E0,-3.083145012E0,1.125864052E1
1.602317029E1,5.891617069E0,-8.033608868E0,-2.498267326E0,1.027089883E1
1.603309429E1,5.594962091E0,-7.458057491E0,-1.998033496E0,9.535111966E0
1.604301729E1,5.334848703E0,-7.129385499E0,-1.686665169E0,9.062758282E0
1.605294129E1,5.156777013E0,-6.921886527E0,-1.542718707E0,8.768400268E0
1.606286529E1,5.058077182E0,-6.678662236E0,-1.577821442E0,8.525150706E0
1.607278929E1,5.018789740E0,-6.523039761E0,-1.712959806E0,8.406695515E0
1.608271329E1,5.034433381E0,-6.505087640E0,-1.857231812E0,8.432733523E0
1.609263629E1,4.994077653E0,-6.588660139E0,-1.873607670E0,8.477125676E0
1.610256029E1,5.138957623E0,-6.526508914E0,-1.513711693E0,8.443667873E0
1.611248429E1,6.049914061E0,-6.321504949E0,-2.979960367E-1,8.755094894E0
1.612240829E1,5.173445671E0,-5.173300660E0,1.310430025E0,7.432685024E0
1.613233129E1,2.822862055E0,-2.970632889E0,2.796832005E0,4.961398916E0
1.614225529E1,5.811109096E-1,-1.204853868E0,2.470876337E0,2.809731768E0
1.615217929E1,-8.054893318E-1,-7.614250070E-1,9.916313490E-1,1.487250429E0
1.616210329E1,-6.969737801E-1,-4.054050028E-1,1.462219065E-1,8.194550094E-1
1.617202729E1,8.301827082E-1,-2.948651451E-1,1.415006892E0,1.666851309E0
1.618195029E1,-3.669870418E-1,1.049477561E0,3.562522848E0,3.731976913E0
1.619187429E1,-2.015653934E0,4.571457862E0,7.474077693E-1,5.051703291E0
1.620179829E1,-5.858739345E0,1.082844814E1,5.751117248E0,1.358879927E1
1.621172229E1,-1.223186878E1,1.866877496E1,1.624979588E1,2.760792709E1
1.622164629E1,-1.680400901E1,2.030396519E1,1.186404266E1,2.890296229E1
1.623156929E1,-1.688532039E1,1.952361450E1,2.258038857E0,2.591108464E1
1.624149329E1,-1.613727907E1,1.939222756E1,-8.358501220E-1,2.524220496E1
1.625141729E1,-1.320306674E1,1.882362209E1,-4.742536283E-1,2.299727454E1
1.626134129E1,-8.413228819E0,1.700291257E1,-2.468840629E-1,1.897214819E1
1.627126529E1,-5.164067906E0,1.394024159E1,2.952244565E-1,1.486893037E1
1.628118829E1,-4.082309037E0,1.225074710E1,5.284175563E-1,1.292382593E1
1.629111229E1,-3.383674355E0,1.078451918E1,2.314336726E-1,1.130524956E1
1.630103629E1,-2.425294660E0,8.567656708E0,3.423707025E-1,8.910892961E0
1.631096029E1,-1.330952582E0,4.995741186E0,1.022333324E0,5.270107228E0
1.632088429E1,-8.484333301E-1,1.197118587E0,1.778687772E0,2.305788849E0
1.633080729E1,-9.655980831E-1,-1.765771419E0,2.346329036E0,3.091211462E0
1.634073129E1,-1.359267139E0,-3.864083347E0,2.807719520E0,4.966088619E0
1.635065529E1,-1.501792436E0,-5.082246063E0,3.070271198E0,6.124636381E0
1.636057929E1,-8.308083603E-1,-5.869380693E0,3.438141169E0,6.852786801E0
1.637050329E1,3.590430146E-1,-6.287130922E0,3.295687793E0,7.107635693E0
1.638042629E1,1.563460973E0,-6.665629962E0,2.429392827E0,7.264776839E0
1.639035029E1,2.524348539E0,-7.227971894E0,1.298021064E0,7.765357167E0
1.640027429E1,3.405375127E0,-7.972810104E0,-2.320480688E-1,8.672723161E0
1.641019829E1,4.066525355E0,-8.709476246E0,-1.535357208E0,9.733906035E0
1.642012129E1,4.548114608E0,-9.355338053E0,-2.266896511E0,1.064643210E1
1.643004529E1,5.057694190E0,-1.010462716E1,-2.434271890E0,1.155895498E1
1.643996929E1,5.550104592E0,-1.077444911E1,-2.237808952E0,1.232478006E1
1.644989329E1,5.851185912E0,-1.095441120E1,-2.219817654E0,1.261598556E1
1.645981729E1,6.008647921E0,-1.076281665E1,-2.269131317E0,1.253359602E1
